"","STUDYID","USUBJID","ANALYTE","PCSPEC","DOSEFRQ","DOSNO","AFRLT","ARRLT","NRRLT","NFRLT","PCSTRESC","PARAM","PCSTRESU","ROUTE","DOSEA","AGE","SEX","RACE","NDOSEDUR","RRLTU","DOSEU","PCLLOQ","DRUG","AVISIT","AVAL","AVALU","EVID","ATPTREF","SITEID","TRT01A","TRT01P","PCRFTDTM","HTBL","WTBL","WTBLU","HTBLU","ADOSEDUR","TAU"
"1","XX01",11101,"Analyte01","SERUM","EVERY WEEK",1,-0.17,-0.17,0,0,0,"Analyte01","ug/mL","intravascular",35,52,"M","WHITE",1.5,"Hours","cells",0,"Analyte01","Cycle 1 Day 1",0,"copies/ug",0,"DOSE 1",339203,"Dummy Treatment Arm A","Dummy Treatment Arm P","27/07/2021 12:30",173,90,"kg","cm",1.47,504
"2","XX01",11101,"Analyte01","SERUM","EVERY WEEK",1,1.5,1.5,0.5,0.5,7.58,"Analyte01","ug/mL","intravascular",35,52,"M","WHITE",1.5,"Hours","cells",0,"Analyte01","Cycle 1 Day 1",7.58,"copies/ug",0,"DOSE 1",339203,"Dummy Treatment Arm A","Dummy Treatment Arm P","27/07/2021 12:30",173,90,"kg","cm",1.52,504
"3","XX01",11101,"Analyte01","SERUM","EVERY WEEK",1,5,5,4,4,8.5,"Analyte01","ug/mL","intravascular",35,52,"M","WHITE",1.5,"Hours","cells",0,"Analyte01","Cycle 1 Day 1",8.5,"copies/ug",0,"DOSE 1",339203,"Dummy Treatment Arm A","Dummy Treatment Arm P","27/07/2021 12:30",173,90,"kg","cm",1.55,504
"4","XX01",11101,"Analyte01","SERUM","EVERY WEEK",1,7.5,7.5,8,8,8.66,"Analyte01","ug/mL","intravascular",35,52,"M","WHITE",1.5,"Hours","cells",0,"Analyte01","Cycle 1 Day 1",8.66,"copies/ug",0,"DOSE 1",339203,"Dummy Treatment Arm A","Dummy Treatment Arm P","27/07/2021 12:30",173,90,"kg","cm",1.49,504
"5","XX01",11101,"Analyte01","SERUM","EVERY WEEK",1,27.25,27.25,48,48,7.03,"Analyte01","ug/mL","intravascular",35,52,"M","WHITE",1.5,"Hours","cells",0,"Analyte01","Cycle 1 Day 2",7.03,"copies/ug",0,"DOSE 1",339203,"Dummy Treatment Arm A","Dummy Treatment Arm P","27/07/2021 12:30",173,90,"kg","cm",1.48,504
"6","XX01",11101,"Analyte01","SERUM","EVERY WEEK",1,73.08,73.08,144,144,3.78,"Analyte01","ug/mL","intravascular",35,52,"M","WHITE",1.5,"Hours","cells",0,"Analyte01","Cycle 1 Day 4",NA,"copies/ug",0,"DOSE 1",339203,"Dummy Treatment Arm A","Dummy Treatment Arm P","27/07/2021 12:30",173,90,"kg","cm",1.51,504
"7","XX01",11101,"Analyte01","SERUM","EVERY WEEK",1,73.08,73.08,144,144,3.78,"Analyte01","ug/mL","intravascular",35,52,"M","WHITE",1.5,"Hours","cells",0,"Analyte01","Cycle 1 Day 4",3.78,"copies/ug",0,"DOSE 1",339203,"Dummy Treatment Arm A","Dummy Treatment Arm P","27/07/2021 12:30",173,90,"kg","cm",1.51,504
"8","XX01",11101,"Analyte01","SERUM","EVERY WEEK",1,383.67,383.67,NA,NA,0.0063,"Analyte01","ug/mL","intravascular",35,52,"M","WHITE",1.5,"Hours","cells",0,"Analyte01","Discontinuation Visit",0.0063,"copies/ug",0,"DOSE 1",339203,"Dummy Treatment Arm A","Dummy Treatment Arm P","27/07/2021 12:30",173,90,"kg","cm",1.51,504
"9","XX01",11101,"Analyte01","SERUM","EVERY WEEK",1,2425.17,2425.17,NA,NA,0,"Analyte01","ug/mL","intravascular",35,52,"M","WHITE",1.5,"Hours","cells",0,"Analyte01","Safety Follow Up",0,"copies/ug",0,"DOSE 1",339203,"Dummy Treatment Arm A","Dummy Treatment Arm P","27/07/2021 12:30",173,90,"kg","cm",1.5,504
"10","XX01",11101,"Analyte01","SERUM","EVERY WEEK",2,503.67,503.67,0,504,0,"Analyte01","ug/mL","intravascular",35,52,"M","WHITE",1.5,"Hours","cells",0,"Analyte01","Cycle 2 Day 1",0,"copies/ug",0,"DOSE 2",339203,"Dummy Treatment Arm A","Dummy Treatment Arm P","27/07/2021 12:30",173,90,"kg","cm",1.53,504
"11","XX01",11101,"Analyte01","SERUM","EVERY WEEK",2,503.67,-0.33,0,504,0,"Analyte01","ug/mL","intravascular",35,52,"M","WHITE",1.5,"Hours","cells",0,"Analyte01","Cycle 2 Day 1",0,"copies/ug",0,"DOSE 2",339203,"Dummy Treatment Arm A","Dummy Treatment Arm P","27/07/2021 12:30",173,90,"kg","cm",1.53,504
"12","XX01",11101,"Analyte01","SERUM","EVERY 3 WEEKS",2,505.5,1.5,0.5,504.5,7.28,"Analyte01","ug/mL","intravascular",35,52,"M","WHITE",1.5,"Hours","cells",0,"Analyte01","Cycle 2 Day 1",7.28,"copies/ug",0,"DOSE 2",339203,"Dummy Treatment Arm A","Dummy Treatment Arm P","15/06/2022 11:25",173,90,"kg","cm",1.47,504
"13","XX01",11101,"Analyte01","SERUM","EVERY 3 WEEKS",2,533,29,48,552,6.25,"Analyte01","ug/mL","intravascular",35,52,"M","WHITE",1.5,"Hours","cells",0,"Analyte01","Cycle 2 Day 2",6.25,"copies/ug",0,"DOSE 2",339203,"Dummy Treatment Arm A","Dummy Treatment Arm P","15/06/2022 11:25",173,90,"kg","cm",1.5,504
"14","XX01",11101,"Analyte01","SERUM","EVERY 3 WEEKS",2,671.58,167.58,336,840,0.955,"Analyte01","ug/mL","intravascular",35,52,"M","WHITE",1.5,"Hours","cells",0,"Analyte01","Cycle 2 Day 8",0.955,"copies/ug",0,"DOSE 2",339203,"Dummy Treatment Arm A","Dummy Treatment Arm P","15/06/2022 11:25",173,90,"kg","cm",1.45,504
"15","XX01",11101,"Analyte01","SERUM","EVERY 3 WEEKS",2,695.92,191.92,384,888,0.68,"Analyte01","ug/mL","intravascular",35,52,"M","WHITE",1.5,"Hours","cells",0,"Analyte01","Cycle 2 Day 9",0.68,"copies/ug",0,"DOSE 2",339203,"Dummy Treatment Arm A","Dummy Treatment Arm P","15/06/2022 11:25",173,90,"kg","cm",1.54,504
"16","XX01",11101,"Analyte01","SERUM","EVERY 3 WEEKS",3,1008.33,0.33,0,1008,0.0031,"Analyte01","ug/mL","intravascular",35,52,"M","WHITE",1.5,"Hours","cells",0,"Analyte01","Cycle 3 Day 1",0.0031,"copies/ug",0,"DOSE 3",339203,"Dummy Treatment Arm A","Dummy Treatment Arm P","15/06/2022 11:25",173,90,"kg","cm",1.47,504
"17","XX01",11101,"Analyte01","SERUM","EVERY 3 WEEKS",3,1009.5,1.5,0.5,1008.5,7.99,"Analyte01","ug/mL","intravascular",35,52,"M","WHITE",1,"Hours","cells",0,"Analyte01","Cycle 3 Day 1",7.99,"copies/ug",0,"DOSE 3",339203,"Dummy Treatment Arm A","Dummy Treatment Arm P","06/07/2022 11:00",173,90,"kg","cm",1.04,504
"18","XX01",11101,"Analyte01","SERUM","EVERY 3 WEEKS",3,1182.58,174.58,336,1344,1.28,"Analyte01","ug/mL","intravascular",35,52,"M","WHITE",1,"Hours","cells",0,"Analyte01","Cycle 3 Day 8",1.28,"copies/ug",0,"DOSE 3",339203,"Dummy Treatment Arm A","Dummy Treatment Arm P","06/07/2022 11:00",173,90,"kg","cm",1.06,504
"19","XX01",11101,"Analyte01","SERUM","EVERY 3 WEEKS",3,1345.83,337.83,672,1680,0.116,"Analyte01","ug/mL","intravascular",35,52,"M","WHITE",1,"Hours","cells",0,"Analyte01","Cycle 3 Day 15",0.116,"copies/ug",0,"DOSE 3",339203,"Dummy Treatment Arm A","Dummy Treatment Arm P","06/07/2022 11:00",173,90,"kg","cm",1.07,504
"20","XX01",11101,"Analyte01","SERUM","EVERY 3 WEEKS",4,1512.92,0.92,0,1512,0.0201,"Analyte01","ug/mL","intravascular",35,52,"M","WHITE",1,"Hours","cells",0,"Analyte01","Cycle 4 Day 1",0.0201,"copies/ug",0,"DOSE 4",339203,"Dummy Treatment Arm A","Dummy Treatment Arm P","06/07/2022 11:00",173,90,"kg","cm",0.95,504
"21","XX01",11101,"Analyte01","SERUM","EVERY 3 WEEKS",4,1513.5,1.5,0.5,1512.5,8.73,"Analyte01","ug/mL","intravascular",35,52,"M","WHITE",0.5,"Hours","cells",0,"Analyte01","Cycle 4 Day 1",8.73,"copies/ug",0,"DOSE 4",339203,"Dummy Treatment Arm A","Dummy Treatment Arm P","27/07/2022 11:00",173,90,"kg","cm",0.49,504
"22","XX01",11101,"Analyte01","SERUM","EVERY 3 WEEKS",4,1683.17,171.17,336,1848,1.11,"Analyte01","ug/mL","intravascular",35,52,"M","WHITE",0.5,"Hours","cells",0,"Analyte01","Cycle 4 Day 8",1.11,"copies/ug",0,"DOSE 4",339203,"Dummy Treatment Arm A","Dummy Treatment Arm P","27/07/2022 11:00",173,90,"kg","cm",0.5,504
"23","XX01",11101,"Analyte01","SERUM","EVERY 3 WEEKS",4,1849,337,672,2184,0.149,"Analyte01","ug/mL","intravascular",35,52,"M","WHITE",0.5,"Hours","cells",0,"Analyte01","Cycle 4 Day 15",0.149,"copies/ug",0,"DOSE 4",339203,"Dummy Treatment Arm A","Dummy Treatment Arm P","27/07/2022 11:00",173,90,"kg","cm",0.49,504
"24","XX01",11101,"Analyte01","SERUM","EVERY 3 WEEKS",5,2016.92,0.92,0,2016,0.0258,"Analyte01","ug/mL","intravascular",35,52,"M","WHITE",0.5,"Hours","cells",0,"Analyte01","Cycle 5 Day 1",0.0258,"copies/ug",0,"DOSE 5",339203,"Dummy Treatment Arm A","Dummy Treatment Arm P","27/07/2022 11:00",173,90,"kg","cm",0.56,504
"25","XX01",11101,"Analyte01","SERUM","EVERY 3 WEEKS",5,2017.5,1.5,0.5,2016.5,6.84,"Analyte01","ug/mL","intravascular",35,52,"M","WHITE",0.5,"Hours","cells",0,"Analyte01","Cycle 5 Day 1",6.84,"copies/ug",0,"DOSE 5",339203,"Dummy Treatment Arm A","Dummy Treatment Arm P","17/08/2022 16:25",173,90,"kg","cm",0.48,504
"26","XX01",11101,"Analyte01","SERUM","EVERY 3 WEEKS",5,2184.08,168.08,336,2352,1.07,"Analyte01","ug/mL","intravascular",35,52,"M","WHITE",0.5,"Hours","cells",0,"Analyte01","Cycle 5 Day 8",1.07,"copies/ug",0,"DOSE 5",339203,"Dummy Treatment Arm A","Dummy Treatment Arm P","17/08/2022 16:25",173,90,"kg","cm",0.45,504
"27","XX01",11102,"Analyte01","SERUM","EVERY WEEK",1,170.25,1.75,0,168.5,14.9,"Analyte01","ug/mL","intravascular",35,74,"F","WHITE",1.55,"Hours","cells",0,"Analyte01","Cycle 1 Day 8",14.9,"copies/ug",0,"DOSE 1",339203,"Dummy Treatment Arm A","Dummy Treatment Arm P","11/08/2021 15:53",163,54.9,"kg","cm",1.56,504
"28","XX01",11102,"Analyte01","SERUM","EVERY WEEK",1,174.08,5.58,3.5,172,12,"Analyte01","ug/mL","intravascular",35,74,"F","WHITE",1.55,"Hours","cells",0,"Analyte01","Cycle 1 Day 8",12,"copies/ug",0,"DOSE 1",339203,"Dummy Treatment Arm A","Dummy Treatment Arm P","11/08/2021 15:53",163,54.9,"kg","cm",1.57,504
"29","XX01",11102,"Analyte01","SERUM","EVERY WEEK",1,192.2,23.7,47.5,216,9.37,"Analyte01","ug/mL","intravascular",35,74,"F","WHITE",1.55,"Hours","cells",0,"Analyte01","Cycle 1 Day 9",9.37,"copies/ug",0,"DOSE 1",339203,"Dummy Treatment Arm A","Dummy Treatment Arm P","11/08/2021 15:53",163,54.9,"kg","cm",1.53,504
"30","XX01",11102,"Analyte01","SERUM","EVERY WEEK",1,283.75,115.25,191.5,360,3.12,"Analyte01","ug/mL","intravascular",35,74,"F","WHITE",1.55,"Hours","cells",0,"Analyte01","Cycle 1 Day 12",3.12,"copies/ug",0,"DOSE 1",339203,"Dummy Treatment Arm A","Dummy Treatment Arm P","11/08/2021 15:53",163,54.9,"kg","cm",1.5,504
"31","XX01",11102,"Analyte01","SERUM","EVERY WEEK",2,336.35,0.35,0,336,1.47,"Analyte01","ug/mL","intravascular",35,74,"F","WHITE",1.55,"Hours","cells",0,"Analyte01","Cycle 1 Day 15",1.47,"copies/ug",0,"DOSE 2",339203,"Dummy Treatment Arm A","Dummy Treatment Arm P","11/08/2021 15:53",163,54.9,"kg","cm",1.54,504
"32","XX01",11102,"Analyte01","SERUM","EVERY WEEK",2,337.78,1.78,0.5,336.5,15.2,"Analyte01","ug/mL","intravascular",35,74,"F","WHITE",1.08,"Hours","cells",0,"Analyte01","Cycle 1 Day 15",15.2,"copies/ug",0,"DOSE 2",339203,"Dummy Treatment Arm A","Dummy Treatment Arm P","18/08/2021 13:02",163,54.9,"kg","cm",1.11,504
"33","XX01",11102,"Analyte01","SERUM","EVERY WEEK",2,359.67,23.67,48,384,12.3,"Analyte01","ug/mL","intravascular",35,74,"F","WHITE",1.08,"Hours","cells",0,"Analyte01","Cycle 1 Day 16",12.3,"copies/ug",0,"DOSE 2",339203,"Dummy Treatment Arm A","Dummy Treatment Arm P","18/08/2021 13:02",163,54.9,"kg","cm",1.11,504
"34","XX01",11102,"Analyte01","SERUM","EVERY WEEK",3,504.93,0.93,0,504,1.28,"Analyte01","ug/mL","intravascular",35,74,"F","WHITE",1.08,"Hours","cells",0,"Analyte01","Cycle 2 Day 1",1.28,"copies/ug",0,"DOSE 3",339203,"Dummy Treatment Arm A","Dummy Treatment Arm P","18/08/2021 13:02",163,54.9,"kg","cm",1.06,504
"35","XX01",11102,"Analyte01","SERUM","EVERY WEEK",3,505.58,1.58,0.5,504.5,14.2,"Analyte01","ug/mL","intravascular",35,74,"F","WHITE",0.48,"Hours","cells",0,"Analyte01","Cycle 2 Day 1",14.2,"copies/ug",0,"DOSE 3",339203,"Dummy Treatment Arm A","Dummy Treatment Arm P","25/08/2021 12:12",163,54.9,"kg","cm",0.45,504
"36","XX01",11102,"Analyte01","SERUM","EVERY WEEK",3,530.32,26.32,48,552,10.4,"Analyte01","ug/mL","intravascular",35,74,"F","WHITE",0.48,"Hours","cells",0,"Analyte01","Cycle 2 Day 2",10.4,"copies/ug",0,"DOSE 3",339203,"Dummy Treatment Arm A","Dummy Treatment Arm P","25/08/2021 12:12",163,54.9,"kg","cm",0.47,504
"37","XX01",11102,"Analyte01","SERUM","EVERY WEEK",4,840.98,0.98,0,840,0.101,"Analyte01","ug/mL","intravascular",35,74,"F","WHITE",0.48,"Hours","cells",0,"Analyte01","Cycle 2 Day 15",0.101,"copies/ug",0,"DOSE 4",339203,"Dummy Treatment Arm A","Dummy Treatment Arm P","25/08/2021 12:12",163,54.9,"kg","cm",0.44,504
"38","XX01",11102,"Analyte01","SERUM","EVERY WEEK",4,841.63,1.63,0.5,840.5,17.4,"Analyte01","ug/mL","intravascular",35,74,"F","WHITE",0.5,"Hours","cells",0,"Analyte01","Cycle 2 Day 15",17.4,"copies/ug",0,"DOSE 4",339203,"Dummy Treatment Arm A","Dummy Treatment Arm P","08/09/2021 13:41",163,54.9,"kg","cm",0.48,504
"39","XX01",11102,"Analyte01","SERUM","EVERY WEEK",5,1008.88,0.88,0,1008,1.53,"Analyte01","ug/mL","intravascular",35,74,"F","WHITE",0.5,"Hours","cells",0,"Analyte01","Cycle 3 Day 1",1.53,"copies/ug",0,"DOSE 5",339203,"Dummy Treatment Arm A","Dummy Treatment Arm P","08/09/2021 13:41",163,54.9,"kg","cm",0.5,504
"40","XX01",11102,"Analyte01","SERUM","EVERY WEEK",5,1009.6,1.6,0.5,1008.5,19.7,"Analyte01","ug/mL","intravascular",35,74,"F","WHITE",0.53,"Hours","cells",0,"Analyte01","Cycle 3 Day 1",19.7,"copies/ug",0,"DOSE 5",339203,"Dummy Treatment Arm A","Dummy Treatment Arm P","15/09/2021 13:13",163,54.9,"kg","cm",0.54,504
"41","XX01",11102,"Analyte01","SERUM","EVERY WEEK",6,1176.17,0.17,0,1176,2.95,"Analyte01","ug/mL","intravascular",35,74,"F","WHITE",0.53,"Hours","cells",0,"Analyte01","Cycle 3 Day 8",2.95,"copies/ug",0,"DOSE 6",339203,"Dummy Treatment Arm A","Dummy Treatment Arm P","15/09/2021 13:13",163,54.9,"kg","cm",0.52,504
"42","XX01",11102,"Analyte01","SERUM","EVERY WEEK",6,1177.58,1.58,0.5,1176.5,7.07,"Analyte01","ug/mL","intravascular",35,74,"F","WHITE",0.52,"Hours","cells",0,"Analyte01","Cycle 3 Day 8",7.07,"copies/ug",0,"DOSE 6",339203,"Dummy Treatment Arm A","Dummy Treatment Arm P","22/09/2021 14:06",163,54.9,"kg","cm",0.44,504
"43","XX01",11102,"Analyte01","SERUM","EVERY WEEK",7,1343.77,-0.23,0,1344,4.05,"Analyte01","ug/mL","intravascular",35,74,"F","WHITE",0.52,"Hours","cells",0,"Analyte01","Cycle 3 Day 15",4.05,"copies/ug",0,"DOSE 7",339203,"Dummy Treatment Arm A","Dummy Treatment Arm P","22/09/2021 14:06",163,54.9,"kg","cm",0.48,504
"44","XX01",11102,"Analyte01","SERUM","EVERY WEEK",7,1345.63,1.63,0.5,1344.5,16.5,"Analyte01","ug/mL","intravascular",35,74,"F","WHITE",0.5,"Hours","cells",0,"Analyte01","Cycle 3 Day 15",16.5,"copies/ug",0,"DOSE 7",339203,"Dummy Treatment Arm A","Dummy Treatment Arm P","29/09/2021 13:33",163,54.9,"kg","cm",0.47,504
"45","XX01",11102,"Analyte01","SERUM","EVERY WEEK",8,1512.88,0.88,0,1512,3.88,"Analyte01","ug/mL","intravascular",35,74,"F","WHITE",0.5,"Hours","cells",0,"Analyte01","Cycle 4 Day 1",3.88,"copies/ug",0,"DOSE 8",339203,"Dummy Treatment Arm A","Dummy Treatment Arm P","29/09/2021 13:33",163,54.9,"kg","cm",0.46,504
"46","XX01",11102,"Analyte01","SERUM","EVERY WEEK",9,1682.03,1.53,0,1680.5,18.5,"Analyte01","ug/mL","intravascular",35,74,"F","WHITE",0.52,"Hours","cells",0,"Analyte01","Cycle 4 Day 1",18.5,"copies/ug",0,"DOSE 9",339203,"Dummy Treatment Arm A","Dummy Treatment Arm P","06/10/2021 12:30",163,54.9,"kg","cm",0.5,504
"47","XX01",11102,"Analyte01","SERUM","EVERY WEEK",9,1681.07,0.57,167.5,1848,3.13,"Analyte01","ug/mL","intravascular",35,74,"F","WHITE",0.52,"Hours","cells",0,"Analyte01","Cycle 4 Day 8",3.13,"copies/ug",0,"DOSE 9",339203,"Dummy Treatment Arm A","Dummy Treatment Arm P","06/10/2021 12:30",163,54.9,"kg","cm",0.52,504
"48","XX01",11102,"Analyte01","SERUM","EVERY WEEK",9,1682.1,1.6,168,1848.5,14.7,"Analyte01","ug/mL","intravascular",35,74,"F","WHITE",0.53,"Hours","cells",0,"Analyte01","Cycle 4 Day 8",14.7,"copies/ug",0,"DOSE 9",339203,"Dummy Treatment Arm A","Dummy Treatment Arm P","13/10/2021 12:47",163,54.9,"kg","cm",0.51,504
"49","XX01",11102,"Analyte01","SERUM","EVERY WEEK",10,2016.35,0.35,0,2016,0.893,"Analyte01","ug/mL","intravascular",35,74,"F","WHITE",0.53,"Hours","cells",0,"Analyte01","Cycle 5 Day 1",0.893,"copies/ug",0,"DOSE 10",339203,"Dummy Treatment Arm A","Dummy Treatment Arm P","13/10/2021 12:47",163,54.9,"kg","cm",0.51,504
"50","XX01",11102,"Analyte01","SERUM","EVERY WEEK",11,2184.98,0.98,0,2184,2.05,"Analyte01","ug/mL","intravascular",35,74,"F","WHITE",0.53,"Hours","cells",0,"Analyte01","Cycle 5 Day 8",2.05,"copies/ug",0,"DOSE 11",339203,"Dummy Treatment Arm A","Dummy Treatment Arm P","27/10/2021 13:32",163,54.9,"kg","cm",0.58,504
"51","XX01",11102,"Analyte01","SERUM","EVERY WEEK",12,2349.92,-2.08,0,2352,2.83,"Analyte01","ug/mL","intravascular",35,74,"F","WHITE",0.5,"Hours","cells",0,"Analyte01","Cycle 5 Day 15",2.83,"copies/ug",0,"DOSE 12",339203,"Dummy Treatment Arm A","Dummy Treatment Arm P","03/11/2021 12:29",163,54.9,"kg","cm",0.51,504
"52","XX01",11102,"Analyte01","SERUM","EVERY WEEK",13,2520.38,0.38,0,2520,4.58,"Analyte01","ug/mL","intravascular",35,74,"F","WHITE",0.6,"Hours","cells",0,"Analyte01","Cycle 6 Day 1",4.58,"copies/ug",0,"DOSE 13",339203,"Dummy Treatment Arm A","Dummy Treatment Arm P","10/11/2021 12:05",163,54.9,"kg","cm",0.57,504
"53","XX01",11102,"Analyte01","SERUM","EVERY WEEK",14,2688.08,0.08,0,2688,3.77,"Analyte01","ug/mL","intravascular",35,74,"F","WHITE",0.52,"Hours","cells",0,"Analyte01","Cycle 6 Day 8",3.77,"copies/ug",0,"DOSE 14",339203,"Dummy Treatment Arm A","Dummy Treatment Arm P","17/11/2021 12:14",163,54.9,"kg","cm",0.53,504
"54","XX01",11102,"Analyte01","SERUM","EVERY WEEK",15,2856.92,0.92,0,2856,4.87,"Analyte01","ug/mL","intravascular",35,74,"F","WHITE",0.63,"Hours","cells",0,"Analyte01","Cycle 6 Day 15",4.87,"copies/ug",0,"DOSE 15",339203,"Dummy Treatment Arm A","Dummy Treatment Arm P","24/11/2021 12:34",163,54.9,"kg","cm",0.58,504
"55","XX01",11103,"Analyte01","SERUM","EVERY WEEK",1,-1.33,-1.33,0,0,0,"Analyte01","ug/mL","intravascular",35,41,"M","WHITE",1.5,"Hours","cells",0,"Analyte01","Cycle 1 Day 1",0,"copies/ug",0,"DOSE 1",339203,"Dummy Treatment Arm A","Dummy Treatment Arm P","13/09/2021 12:40",168,102.6,"kg","cm",1.51,504
"56","XX01",11103,"Analyte01","SERUM","EVERY WEEK",1,1.63,1.63,0.5,0.5,9.93,"Analyte01","ug/mL","intravascular",35,41,"M","WHITE",1.5,"Hours","cells",0,"Analyte01","Cycle 1 Day 1",9.93,"copies/ug",0,"DOSE 1",339203,"Dummy Treatment Arm A","Dummy Treatment Arm P","13/09/2021 12:40",168,102.6,"kg","cm",1.48,504
"57","XX01",11103,"Analyte01","SERUM","EVERY WEEK",1,5.58,5.58,4,4,8.99,"Analyte01","ug/mL","intravascular",35,41,"M","WHITE",1.5,"Hours","cells",0,"Analyte01","Cycle 1 Day 1",8.99,"copies/ug",0,"DOSE 1",339203,"Dummy Treatment Arm A","Dummy Treatment Arm P","13/09/2021 12:40",168,102.6,"kg","cm",1.5,504
"58","XX01",11103,"Analyte01","SERUM","EVERY WEEK",1,9.33,9.33,8,8,8.75,"Analyte01","ug/mL","intravascular",35,41,"M","WHITE",1.5,"Hours","cells",0,"Analyte01","Cycle 1 Day 1",8.75,"copies/ug",0,"DOSE 1",339203,"Dummy Treatment Arm A","Dummy Treatment Arm P","13/09/2021 12:40",168,102.6,"kg","cm",1.5,504
"59","XX01",11103,"Analyte01","SERUM","EVERY WEEK",1,25.75,25.75,48,48,6.66,"Analyte01","ug/mL","intravascular",35,41,"M","WHITE",1.5,"Hours","cells",0,"Analyte01","Cycle 1 Day 2",6.66,"copies/ug",0,"DOSE 1",339203,"Dummy Treatment Arm A","Dummy Treatment Arm P","13/09/2021 12:40",168,102.6,"kg","cm",1.42,504
"60","XX01",11103,"Analyte01","SERUM","EVERY WEEK",1,74.83,74.83,144,144,2.98,"Analyte01","ug/mL","intravascular",35,41,"M","WHITE",1.5,"Hours","cells",0,"Analyte01","Cycle 1 Day 4",2.98,"copies/ug",0,"DOSE 1",339203,"Dummy Treatment Arm A","Dummy Treatment Arm P","13/09/2021 12:40",168,102.6,"kg","cm",1.5,504
"61","XX01",11103,"Analyte01","SERUM","EVERY WEEK",2,167.9,-0.1,0,168,0.798,"Analyte01","ug/mL","intravascular",35,41,"M","WHITE",1.5,"Hours","cells",0,"Analyte01","Cycle 1 Day 8",0.798,"copies/ug",0,"DOSE 2",339203,"Dummy Treatment Arm A","Dummy Treatment Arm P","13/09/2021 12:40",168,102.6,"kg","cm",1.53,504
"62","XX01",11103,"Analyte01","SERUM","EVERY WEEK",2,169.75,1.75,0.5,168.5,9.77,"Analyte01","ug/mL","intravascular",35,41,"M","WHITE",1,"Hours","cells",0,"Analyte01","Cycle 1 Day 8",9.77,"copies/ug",0,"DOSE 2",339203,"Dummy Treatment Arm A","Dummy Treatment Arm P","20/09/2021 12:00",168,102.6,"kg","cm",1.01,504
"63","XX01",11103,"Analyte01","SERUM","EVERY WEEK",2,173.08,5.08,4,172,9.47,"Analyte01","ug/mL","intravascular",35,41,"M","WHITE",1,"Hours","cells",0,"Analyte01","Cycle 1 Day 8",9.47,"copies/ug",0,"DOSE 2",339203,"Dummy Treatment Arm A","Dummy Treatment Arm P","20/09/2021 12:00",168,102.6,"kg","cm",1.04,504
"64","XX01",11103,"Analyte01","SERUM","EVERY WEEK",2,194.17,26.17,48,216,6.73,"Analyte01","ug/mL","intravascular",35,41,"M","WHITE",1,"Hours","cells",0,"Analyte01","Cycle 1 Day 9",6.73,"copies/ug",0,"DOSE 2",339203,"Dummy Treatment Arm A","Dummy Treatment Arm P","20/09/2021 12:00",168,102.6,"kg","cm",1.02,504
"65","XX01",11103,"Analyte01","SERUM","EVERY WEEK",2,266.25,98.25,192,360,1.91,"Analyte01","ug/mL","intravascular",35,41,"M","WHITE",1,"Hours","cells",0,"Analyte01","Cycle 1 Day 12",1.91,"copies/ug",0,"DOSE 2",339203,"Dummy Treatment Arm A","Dummy Treatment Arm P","20/09/2021 12:00",168,102.6,"kg","cm",0.97,504
"66","XX01",11103,"Analyte01","SERUM","EVERY WEEK",3,335.17,-0.83,0,336,0.597,"Analyte01","ug/mL","intravascular",35,41,"M","WHITE",1,"Hours","cells",0,"Analyte01","Cycle 1 Day 15",0.597,"copies/ug",0,"DOSE 3",339203,"Dummy Treatment Arm A","Dummy Treatment Arm P","20/09/2021 12:00",168,102.6,"kg","cm",1.04,504
"67","XX01",11103,"Analyte01","SERUM","EVERY WEEK",3,337.75,1.75,0.5,336.5,9.66,"Analyte01","ug/mL","intravascular",35,41,"M","WHITE",0.83,"Hours","cells",0,"Analyte01","Cycle 1 Day 15",9.66,"copies/ug",0,"DOSE 3",339203,"Dummy Treatment Arm A","Dummy Treatment Arm P","27/09/2021 13:40",168,102.6,"kg","cm",0.85,504
"68","XX01",11103,"Analyte01","SERUM","EVERY WEEK",3,357.5,21.5,48,384,6.64,"Analyte01","ug/mL","intravascular",35,41,"M","WHITE",0.83,"Hours","cells",0,"Analyte01","Cycle 1 Day 16",6.64,"copies/ug",0,"DOSE 3",339203,"Dummy Treatment Arm A","Dummy Treatment Arm P","27/09/2021 13:40",168,102.6,"kg","cm",0.87,504
"69","XX01",11103,"Analyte01","SERUM","EVERY WEEK",4,503.75,-0.25,0,504,0.322,"Analyte01","ug/mL","intravascular",35,41,"M","WHITE",0.83,"Hours","cells",0,"Analyte01","Cycle 2 Day 1",0.322,"copies/ug",0,"DOSE 4",339203,"Dummy Treatment Arm A","Dummy Treatment Arm P","27/09/2021 13:40",168,102.6,"kg","cm",0.82,504
"70","XX01",11103,"Analyte01","SERUM","EVERY WEEK",4,505.55,1.55,0.5,504.5,3.88,"Analyte01","ug/mL","intravascular",35,41,"M","WHITE",0.58,"Hours","cells",0,"Analyte01","Cycle 2 Day 1",3.88,"copies/ug",0,"DOSE 4",339203,"Dummy Treatment Arm A","Dummy Treatment Arm P","04/10/2021 11:20",168,102.6,"kg","cm",0.53,504
"71","XX01",11103,"Analyte01","SERUM","EVERY WEEK",4,530.17,26.17,48,552,4.98,"Analyte01","ug/mL","intravascular",35,41,"M","WHITE",0.58,"Hours","cells",0,"Analyte01","Cycle 2 Day 2",4.98,"copies/ug",0,"DOSE 4",339203,"Dummy Treatment Arm A","Dummy Treatment Arm P","04/10/2021 11:20",168,102.6,"kg","cm",0.58,504
"72","XX01",11103,"Analyte01","SERUM","EVERY WEEK",5,672.67,0.67,0,672,0.41,"Analyte01","ug/mL","intravascular",35,41,"M","WHITE",0.58,"Hours","cells",0,"Analyte01","Cycle 2 Day 8",0.41,"copies/ug",0,"DOSE 5",339203,"Dummy Treatment Arm A","Dummy Treatment Arm P","04/10/2021 11:20",168,102.6,"kg","cm",0.61,504
"73","XX01",11103,"Analyte01","SERUM","EVERY WEEK",5,673.92,1.92,0.5,672.5,13.7,"Analyte01","ug/mL","intravascular",35,41,"M","WHITE",0.58,"Hours","cells",0,"Analyte01","Cycle 2 Day 8",13.7,"copies/ug",0,"DOSE 5",339203,"Dummy Treatment Arm A","Dummy Treatment Arm P","11/10/2021 14:00",168,102.6,"kg","cm",0.58,504
"74","XX01",11103,"Analyte01","SERUM","EVERY WEEK",5,695.17,23.17,48,720,9.08,"Analyte01","ug/mL","intravascular",35,41,"M","WHITE",0.58,"Hours","cells",0,"Analyte01","Cycle 2 Day 9",9.08,"copies/ug",0,"DOSE 5",339203,"Dummy Treatment Arm A","Dummy Treatment Arm P","11/10/2021 14:00",168,102.6,"kg","cm",0.59,504
"75","XX01",11103,"Analyte01","SERUM","EVERY WEEK",5,767.58,95.58,192,864,3.31,"Analyte01","ug/mL","intravascular",35,41,"M","WHITE",0.58,"Hours","cells",0,"Analyte01","Cycle 2 Day 12",3.31,"copies/ug",0,"DOSE 5",339203,"Dummy Treatment Arm A","Dummy Treatment Arm P","11/10/2021 14:00",168,102.6,"kg","cm",0.54,504
"76","XX01",11103,"Analyte01","SERUM","EVERY WEEK",6,840.33,0.33,0,840,1.86,"Analyte01","ug/mL","intravascular",35,41,"M","WHITE",0.58,"Hours","cells",0,"Analyte01","Cycle 2 Day 15",1.86,"copies/ug",0,"DOSE 6",339203,"Dummy Treatment Arm A","Dummy Treatment Arm P","11/10/2021 14:00",168,102.6,"kg","cm",0.54,504
"77","XX01",11103,"Analyte01","SERUM","EVERY WEEK",6,841.58,1.58,0.5,840.5,5.11,"Analyte01","ug/mL","intravascular",35,41,"M","WHITE",0.58,"Hours","cells",0,"Analyte01","Cycle 2 Day 15",5.11,"copies/ug",0,"DOSE 6",339203,"Dummy Treatment Arm A","Dummy Treatment Arm P","18/10/2021 11:45",168,102.6,"kg","cm",0.58,504
"78","XX01",11103,"Analyte01","SERUM","EVERY WEEK",7,1007.72,-0.28,0,1008,0.856,"Analyte01","ug/mL","intravascular",35,41,"M","WHITE",0.58,"Hours","cells",0,"Analyte01","Cycle 3 Day 1",0.856,"copies/ug",0,"DOSE 7",339203,"Dummy Treatment Arm A","Dummy Treatment Arm P","18/10/2021 11:45",168,102.6,"kg","cm",0.63,504
"79","XX01",11103,"Analyte01","SERUM","EVERY WEEK",7,1009.55,1.55,0.5,1008.5,3.8,"Analyte01","ug/mL","intravascular",35,41,"M","WHITE",0.53,"Hours","cells",0,"Analyte01","Cycle 3 Day 1",3.8,"copies/ug",0,"DOSE 7",339203,"Dummy Treatment Arm A","Dummy Treatment Arm P","25/10/2021 11:17",168,102.6,"kg","cm",0.55,504
"80","XX01",11103,"Analyte01","SERUM","EVERY WEEK",8,1175.83,-0.17,0,1176,0.438,"Analyte01","ug/mL","intravascular",35,41,"M","WHITE",0.53,"Hours","cells",0,"Analyte01","Cycle 3 Day 8",0.438,"copies/ug",0,"DOSE 8",339203,"Dummy Treatment Arm A","Dummy Treatment Arm P","25/10/2021 11:17",168,102.6,"kg","cm",0.56,504
"81","XX01",11103,"Analyte01","SERUM","EVERY WEEK",8,1177.67,1.67,0.5,1176.5,2.87,"Analyte01","ug/mL","intravascular",35,41,"M","WHITE",0.5,"Hours","cells",0,"Analyte01","Cycle 3 Day 8",2.87,"copies/ug",0,"DOSE 8",339203,"Dummy Treatment Arm A","Dummy Treatment Arm P","02/11/2021 13:40",168,102.6,"kg","cm",0.47,504
"82","XX01",11103,"Analyte01","SERUM","EVERY WEEK",9,1344.25,0.25,0,1344,0.695,"Analyte01","ug/mL","intravascular",35,41,"M","WHITE",0.5,"Hours","cells",0,"Analyte01","Cycle 3 Day 15",0.695,"copies/ug",0,"DOSE 9",339203,"Dummy Treatment Arm A","Dummy Treatment Arm P","02/11/2021 13:40",168,102.6,"kg","cm",0.48,504
"83","XX01",11103,"Analyte01","SERUM","EVERY WEEK",9,1345.58,1.58,0.5,1344.5,3.61,"Analyte01","ug/mL","intravascular",35,41,"M","WHITE",0.58,"Hours","cells",0,"Analyte01","Cycle 3 Day 15",3.61,"copies/ug",0,"DOSE 9",339203,"Dummy Treatment Arm A","Dummy Treatment Arm P","08/11/2021 13:15",168,102.6,"kg","cm",0.54,504
"84","XX01",11103,"Analyte01","SERUM","EVERY WEEK",10,1511.75,-0.25,0,1512,0.271,"Analyte01","ug/mL","intravascular",35,41,"M","WHITE",0.58,"Hours","cells",0,"Analyte01","Cycle 4 Day 1",0.271,"copies/ug",0,"DOSE 10",339203,"Dummy Treatment Arm A","Dummy Treatment Arm P","08/11/2021 13:15",168,102.6,"kg","cm",0.54,504
"85","XX01",11103,"Analyte01","SERUM","EVERY WEEK",10,1513.53,1.53,0.5,1512.5,4.6,"Analyte01","ug/mL","intravascular",35,41,"M","WHITE",0.58,"Hours","cells",0,"Analyte01","Cycle 4 Day 1",4.6,"copies/ug",0,"DOSE 10",339203,"Dummy Treatment Arm A","Dummy Treatment Arm P","18/11/2021 11:50",168,102.6,"kg","cm",0.61,504
"86","XX01",11103,"Analyte01","SERUM","EVERY WEEK",11,1680.08,0.08,0,1680,0.0917,"Analyte01","ug/mL","intravascular",35,41,"M","WHITE",0.58,"Hours","cells",0,"Analyte01","Cycle 4 Day 8",0.0917,"copies/ug",0,"DOSE 11",339203,"Dummy Treatment Arm A","Dummy Treatment Arm P","18/11/2021 11:50",168,102.6,"kg","cm",0.57,504
"87","XX01",11103,"Analyte01","SERUM","EVERY WEEK",11,1681.58,1.58,0.5,1680.5,4.52,"Analyte01","ug/mL","intravascular",35,41,"M","WHITE",0.58,"Hours","cells",0,"Analyte01","Cycle 4 Day 8",4.52,"copies/ug",0,"DOSE 11",339203,"Dummy Treatment Arm A","Dummy Treatment Arm P","29/11/2021 13:20",168,102.6,"kg","cm",0.58,504
"88","XX01",11103,"Analyte01","SERUM","EVERY WEEK",12,1848.67,0.67,0,1848,0.4,"Analyte01","ug/mL","intravascular",35,41,"M","WHITE",0.58,"Hours","cells",0,"Analyte01","Cycle 4 Day 15",0.4,"copies/ug",0,"DOSE 12",339203,"Dummy Treatment Arm A","Dummy Treatment Arm P","29/11/2021 13:20",168,102.6,"kg","cm",0.53,504
"89","XX01",11103,"Analyte01","SERUM","EVERY WEEK",12,1849.67,1.67,0.5,1848.5,6.72,"Analyte01","ug/mL","intravascular",35,41,"M","WHITE",0.58,"Hours","cells",0,"Analyte01","Cycle 4 Day 15",6.72,"copies/ug",0,"DOSE 12",339203,"Dummy Treatment Arm A","Dummy Treatment Arm P","07/12/2021 13:30",168,102.6,"kg","cm",0.59,504
"90","XX01",11103,"Analyte01","SERUM","EVERY WEEK",13,2016.42,0.42,0,2016,0.736,"Analyte01","ug/mL","intravascular",35,41,"M","WHITE",0.58,"Hours","cells",0,"Analyte01","Cycle 5 Day 1",0.736,"copies/ug",0,"DOSE 13",339203,"Dummy Treatment Arm A","Dummy Treatment Arm P","07/12/2021 13:30",168,102.6,"kg","cm",0.62,504
"91","XX01",11103,"Analyte01","SERUM","EVERY WEEK",13,2017.67,1.67,0.5,2016.5,6.56,"Analyte01","ug/mL","intravascular",35,41,"M","WHITE",0.67,"Hours","cells",0,"Analyte01","Cycle 5 Day 1",6.56,"copies/ug",0,"DOSE 13",339203,"Dummy Treatment Arm A","Dummy Treatment Arm P","14/12/2021 11:25",168,102.6,"kg","cm",0.66,504
"92","XX01",11103,"Analyte01","SERUM","EVERY WEEK",14,2184.25,0.25,0,2184,0.504,"Analyte01","ug/mL","intravascular",35,41,"M","WHITE",0.67,"Hours","cells",0,"Analyte01","Cycle 5 Day 8",0.504,"copies/ug",0,"DOSE 14",339203,"Dummy Treatment Arm A","Dummy Treatment Arm P","14/12/2021 11:25",168,102.6,"kg","cm",0.71,504
"93","XX01",11103,"Analyte01","SERUM","EVERY WEEK",14,2185.58,1.58,0.5,2184.5,5.7,"Analyte01","ug/mL","intravascular",35,41,"M","WHITE",0.67,"Hours","cells",0,"Analyte01","Cycle 5 Day 8",5.7,"copies/ug",0,"DOSE 14",339203,"Dummy Treatment Arm A","Dummy Treatment Arm P","21/12/2021 14:50",168,102.6,"kg","cm",0.7,504
"94","XX01",11103,"Analyte01","SERUM","EVERY WEEK",15,2352.33,0.33,0,2352,0.803,"Analyte01","ug/mL","intravascular",35,41,"M","WHITE",0.67,"Hours","cells",0,"Analyte01","Cycle 5 Day 15",0.803,"copies/ug",0,"DOSE 15",339203,"Dummy Treatment Arm A","Dummy Treatment Arm P","21/12/2021 14:50",168,102.6,"kg","cm",0.65,504
"95","XX01",11103,"Analyte01","SERUM","EVERY WEEK",15,2353.55,1.55,0.5,2352.5,5.28,"Analyte01","ug/mL","intravascular",35,41,"M","WHITE",0.58,"Hours","cells",0,"Analyte01","Cycle 5 Day 15",5.28,"copies/ug",0,"DOSE 15",339203,"Dummy Treatment Arm A","Dummy Treatment Arm P","28/12/2021 11:15",168,102.6,"kg","cm",0.6,504
"96","XX01",11103,"Analyte01","SERUM","EVERY WEEK",16,2522.03,1.53,0,2520.5,3.88,"Analyte01","ug/mL","intravascular",35,41,"M","WHITE",0.63,"Hours","cells",0,"Analyte01","Cycle 6 Day 1",3.88,"copies/ug",0,"DOSE 16",339203,"Dummy Treatment Arm A","Dummy Treatment Arm P","24/01/2022 12:58",168,102.6,"kg","cm",0.6,504
"97","XX01",11103,"Analyte01","SERUM","EVERY WEEK",16,3433.78,913.28,NA,NA,0,"Analyte01","ug/mL","intravascular",35,41,"M","WHITE",0.63,"Hours","cells",0,"Analyte01","Discontinuation Visit",0,"copies/ug",0,"DOSE 16",339203,"Dummy Treatment Arm A","Dummy Treatment Arm P","24/01/2022 12:58",168,102.6,"kg","cm",0.72,504
"98","XX01",11104,"Analyte01","SERUM","EVERY WEEK",1,-0.25,-0.25,0,0,0,"Analyte01","ug/mL","intravascular",35,57,"F","WHITE",1.5,"Hours","cells",0,"Analyte01","Cycle 1 Day 1",0,"copies/ug",0,"DOSE 1",339203,"Dummy Treatment Arm A","Dummy Treatment Arm P","22/09/2021 10:45",161,48.8,"kg","cm",1.48,504
"99","XX01",11104,"Analyte01","SERUM","EVERY WEEK",1,1.5,1.5,0.5,0.5,5.24,"Analyte01","ug/mL","intravascular",35,57,"F","WHITE",1.5,"Hours","cells",0,"Analyte01","Cycle 1 Day 1",5.24,"copies/ug",0,"DOSE 1",339203,"Dummy Treatment Arm A","Dummy Treatment Arm P","22/09/2021 10:45",161,48.8,"kg","cm",1.47,504
"100","XX01",11104,"Analyte01","SERUM","EVERY WEEK",1,5.5,5.5,4,4,15.2,"Analyte01","ug/mL","intravascular",35,57,"F","WHITE",1.5,"Hours","cells",0,"Analyte01","Cycle 1 Day 1",15.2,"copies/ug",0,"DOSE 1",339203,"Dummy Treatment Arm A","Dummy Treatment Arm P","22/09/2021 10:45",161,48.8,"kg","cm",1.52,504
"101","XX01",11104,"Analyte01","SERUM","EVERY WEEK",1,9.5,9.5,8,8,15.4,"Analyte01","ug/mL","intravascular",35,57,"F","WHITE",1.5,"Hours","cells",0,"Analyte01","Cycle 1 Day 1",15.4,"copies/ug",0,"DOSE 1",339203,"Dummy Treatment Arm A","Dummy Treatment Arm P","22/09/2021 10:45",161,48.8,"kg","cm",1.48,504
"102","XX01",11104,"Analyte01","SERUM","EVERY WEEK",1,27,27,48,48,10.3,"Analyte01","ug/mL","intravascular",35,57,"F","WHITE",1.5,"Hours","cells",0,"Analyte01","Cycle 1 Day 2",10.3,"copies/ug",0,"DOSE 1",339203,"Dummy Treatment Arm A","Dummy Treatment Arm P","22/09/2021 10:45",161,48.8,"kg","cm",1.46,504
"103","XX01",11104,"Analyte01","SERUM","EVERY WEEK",1,76.67,76.67,144,144,6.44,"Analyte01","ug/mL","intravascular",35,57,"F","WHITE",1.5,"Hours","cells",0,"Analyte01","Cycle 1 Day 4",6.44,"copies/ug",0,"DOSE 1",339203,"Dummy Treatment Arm A","Dummy Treatment Arm P","22/09/2021 10:45",161,48.8,"kg","cm",1.48,504
"104","XX01",11104,"Analyte01","SERUM","EVERY WEEK",2,168.42,0.42,0,168,1.84,"Analyte01","ug/mL","intravascular",35,57,"F","WHITE",1.5,"Hours","cells",0,"Analyte01","Cycle 1 Day 8",1.84,"copies/ug",0,"DOSE 2",339203,"Dummy Treatment Arm A","Dummy Treatment Arm P","22/09/2021 10:45",161,48.8,"kg","cm",1.48,504
"105","XX01",11104,"Analyte01","SERUM","EVERY WEEK",2,169.5,1.5,0.5,168.5,12.8,"Analyte01","ug/mL","intravascular",35,57,"F","WHITE",1,"Hours","cells",0,"Analyte01","Cycle 1 Day 8",12.8,"copies/ug",0,"DOSE 2",339203,"Dummy Treatment Arm A","Dummy Treatment Arm P","29/09/2021 15:30",161,48.8,"kg","cm",0.94,504
"106","XX01",11104,"Analyte01","SERUM","EVERY WEEK",2,172.5,4.5,4,172,18,"Analyte01","ug/mL","intravascular",35,57,"F","WHITE",1,"Hours","cells",0,"Analyte01","Cycle 1 Day 8",18,"copies/ug",0,"DOSE 2",339203,"Dummy Treatment Arm A","Dummy Treatment Arm P","29/09/2021 15:30",161,48.8,"kg","cm",0.98,504
"107","XX01",11104,"Analyte01","SERUM","EVERY WEEK",2,191.83,23.83,48,216,12.6,"Analyte01","ug/mL","intravascular",35,57,"F","WHITE",1,"Hours","cells",0,"Analyte01","Cycle 1 Day 9",12.6,"copies/ug",0,"DOSE 2",339203,"Dummy Treatment Arm A","Dummy Treatment Arm P","29/09/2021 15:30",161,48.8,"kg","cm",1.06,504
"108","XX01",11104,"Analyte01","SERUM","EVERY WEEK",2,263.5,95.5,192,360,5.76,"Analyte01","ug/mL","intravascular",35,57,"F","WHITE",1,"Hours","cells",0,"Analyte01","Cycle 1 Day 12",5.76,"copies/ug",0,"DOSE 2",339203,"Dummy Treatment Arm A","Dummy Treatment Arm P","29/09/2021 15:30",161,48.8,"kg","cm",0.99,504
"109","XX01",11104,"Analyte01","SERUM","EVERY WEEK",3,336.92,0.92,0,336,2.15,"Analyte01","ug/mL","intravascular",35,57,"F","WHITE",1,"Hours","cells",0,"Analyte01","Cycle 1 Day 15",2.15,"copies/ug",0,"DOSE 3",339203,"Dummy Treatment Arm A","Dummy Treatment Arm P","29/09/2021 15:30",161,48.8,"kg","cm",0.95,504
"110","XX01",11104,"Analyte01","SERUM","EVERY WEEK",3,337.5,1.5,0.5,336.5,12.2,"Analyte01","ug/mL","intravascular",35,57,"F","WHITE",0.5,"Hours","cells",0,"Analyte01","Cycle 1 Day 15",12.2,"copies/ug",0,"DOSE 3",339203,"Dummy Treatment Arm A","Dummy Treatment Arm P","06/10/2021 16:30",161,48.8,"kg","cm",0.49,504
"111","XX01",11104,"Analyte01","SERUM","EVERY WEEK",3,359.5,23.5,48,384,9.69,"Analyte01","ug/mL","intravascular",35,57,"F","WHITE",0.5,"Hours","cells",0,"Analyte01","Cycle 1 Day 16",9.69,"copies/ug",0,"DOSE 3",339203,"Dummy Treatment Arm A","Dummy Treatment Arm P","06/10/2021 16:30",161,48.8,"kg","cm",0.54,504
"112","XX01",11104,"Analyte01","SERUM","EVERY WEEK",4,504.83,0.83,0,504,2.45,"Analyte01","ug/mL","intravascular",35,57,"F","WHITE",0.5,"Hours","cells",0,"Analyte01","Cycle 2 Day 1",2.45,"copies/ug",0,"DOSE 4",339203,"Dummy Treatment Arm A","Dummy Treatment Arm P","06/10/2021 16:30",161,48.8,"kg","cm",0.47,504
"113","XX01",11104,"Analyte01","SERUM","EVERY WEEK",4,505.5,1.5,0.5,504.5,15.8,"Analyte01","ug/mL","intravascular",35,57,"F","WHITE",0.5,"Hours","cells",0,"Analyte01","Cycle 2 Day 1",15.8,"copies/ug",0,"DOSE 4",339203,"Dummy Treatment Arm A","Dummy Treatment Arm P","13/10/2021 12:55",161,48.8,"kg","cm",0.5,504
"114","XX01",11104,"Analyte01","SERUM","EVERY WEEK",4,529.5,25.5,48,552,8.88,"Analyte01","ug/mL","intravascular",35,57,"F","WHITE",0.5,"Hours","cells",0,"Analyte01","Cycle 2 Day 2",8.88,"copies/ug",0,"DOSE 4",339203,"Dummy Treatment Arm A","Dummy Treatment Arm P","13/10/2021 12:55",161,48.8,"kg","cm",0.55,504
"115","XX01",11104,"Analyte01","SERUM","EVERY WEEK",5,672.83,0.83,0,672,2.33,"Analyte01","ug/mL","intravascular",35,57,"F","WHITE",0.5,"Hours","cells",0,"Analyte01","Cycle 2 Day 8",2.33,"copies/ug",0,"DOSE 5",339203,"Dummy Treatment Arm A","Dummy Treatment Arm P","13/10/2021 12:55",161,48.8,"kg","cm",0.47,504
"116","XX01",11104,"Analyte01","SERUM","EVERY WEEK",5,673.5,1.5,0.5,672.5,12.4,"Analyte01","ug/mL","intravascular",35,57,"F","WHITE",0.5,"Hours","cells",0,"Analyte01","Cycle 2 Day 8",12.4,"copies/ug",0,"DOSE 5",339203,"Dummy Treatment Arm A","Dummy Treatment Arm P","20/10/2021 15:10",161,48.8,"kg","cm",0.49,504
"117","XX01",11104,"Analyte01","SERUM","EVERY WEEK",5,695.5,23.5,48,720,11.1,"Analyte01","ug/mL","intravascular",35,57,"F","WHITE",0.5,"Hours","cells",0,"Analyte01","Cycle 2 Day 9",11.1,"copies/ug",0,"DOSE 5",339203,"Dummy Treatment Arm A","Dummy Treatment Arm P","20/10/2021 15:10",161,48.8,"kg","cm",0.57,504
"118","XX01",11104,"Analyte01","SERUM","EVERY WEEK",5,766.33,94.33,192,864,4.66,"Analyte01","ug/mL","intravascular",35,57,"F","WHITE",0.5,"Hours","cells",0,"Analyte01","Cycle 2 Day 12",4.66,"copies/ug",0,"DOSE 5",339203,"Dummy Treatment Arm A","Dummy Treatment Arm P","20/10/2021 15:10",161,48.8,"kg","cm",0.55,504
"119","XX01",11104,"Analyte01","SERUM","EVERY WEEK",6,840.83,0.83,0,840,2.27,"Analyte01","ug/mL","intravascular",35,57,"F","WHITE",0.5,"Hours","cells",0,"Analyte01","Cycle 2 Day 15",2.27,"copies/ug",0,"DOSE 6",339203,"Dummy Treatment Arm A","Dummy Treatment Arm P","20/10/2021 15:10",161,48.8,"kg","cm",0.42,504
"120","XX01",11104,"Analyte01","SERUM","EVERY WEEK",6,841.5,1.5,0.5,840.5,15.3,"Analyte01","ug/mL","intravascular",35,57,"F","WHITE",0.5,"Hours","cells",0,"Analyte01","Cycle 2 Day 15",15.3,"copies/ug",0,"DOSE 6",339203,"Dummy Treatment Arm A","Dummy Treatment Arm P","27/10/2021 14:00",161,48.8,"kg","cm",0.59,504
"121","XX01",11104,"Analyte01","SERUM","EVERY WEEK",7,1008.75,0.75,0,1008,2.35,"Analyte01","ug/mL","intravascular",35,57,"F","WHITE",0.5,"Hours","cells",0,"Analyte01","Cycle 3 Day 1",2.35,"copies/ug",0,"DOSE 7",339203,"Dummy Treatment Arm A","Dummy Treatment Arm P","27/10/2021 14:00",161,48.8,"kg","cm",0.51,504
"122","XX01",11104,"Analyte01","SERUM","EVERY WEEK",7,1009.5,1.5,0.5,1008.5,12.8,"Analyte01","ug/mL","intravascular",35,57,"F","WHITE",0.5,"Hours","cells",0,"Analyte01","Cycle 3 Day 1",12.8,"copies/ug",0,"DOSE 7",339203,"Dummy Treatment Arm A","Dummy Treatment Arm P","03/11/2021 12:35",161,48.8,"kg","cm",0.47,504
"123","XX01",11104,"Analyte01","SERUM","EVERY WEEK",8,1176.83,0.83,0,1176,2.59,"Analyte01","ug/mL","intravascular",35,57,"F","WHITE",0.5,"Hours","cells",0,"Analyte01","Cycle 3 Day 8",2.59,"copies/ug",0,"DOSE 8",339203,"Dummy Treatment Arm A","Dummy Treatment Arm P","03/11/2021 12:35",161,48.8,"kg","cm",0.54,504
"124","XX01",11104,"Analyte01","SERUM","EVERY WEEK",8,1177.5,1.5,0.5,1176.5,13.2,"Analyte01","ug/mL","intravascular",35,57,"F","WHITE",0.5,"Hours","cells",0,"Analyte01","Cycle 3 Day 8",13.2,"copies/ug",0,"DOSE 8",339203,"Dummy Treatment Arm A","Dummy Treatment Arm P","10/11/2021 14:20",161,48.8,"kg","cm",0.54,504
"125","XX01",11104,"Analyte01","SERUM","EVERY WEEK",9,1344.92,0.92,0,1344,2.31,"Analyte01","ug/mL","intravascular",35,57,"F","WHITE",0.5,"Hours","cells",0,"Analyte01","Cycle 3 Day 15",2.31,"copies/ug",0,"DOSE 9",339203,"Dummy Treatment Arm A","Dummy Treatment Arm P","10/11/2021 14:20",161,48.8,"kg","cm",0.51,504
"126","XX01",11104,"Analyte01","SERUM","EVERY WEEK",9,1345.5,1.5,0.5,1344.5,13.8,"Analyte01","ug/mL","intravascular",35,57,"F","WHITE",0.5,"Hours","cells",0,"Analyte01","Cycle 3 Day 15",13.8,"copies/ug",0,"DOSE 9",339203,"Dummy Treatment Arm A","Dummy Treatment Arm P","17/11/2021 14:35",161,48.8,"kg","cm",0.53,504
"127","XX01",11104,"Analyte01","SERUM","EVERY WEEK",10,1512.92,0.92,0,1512,1.51,"Analyte01","ug/mL","intravascular",35,57,"F","WHITE",0.5,"Hours","cells",0,"Analyte01","Cycle 4 Day 1",1.51,"copies/ug",0,"DOSE 10",339203,"Dummy Treatment Arm A","Dummy Treatment Arm P","17/11/2021 14:35",161,48.8,"kg","cm",0.52,504
"128","XX01",11104,"Analyte01","SERUM","EVERY WEEK",10,1513.5,1.5,0.5,1512.5,12.8,"Analyte01","ug/mL","intravascular",35,57,"F","WHITE",0.5,"Hours","cells",0,"Analyte01","Cycle 4 Day 1",12.8,"copies/ug",0,"DOSE 10",339203,"Dummy Treatment Arm A","Dummy Treatment Arm P","24/11/2021 15:15",161,48.8,"kg","cm",0.48,504
"129","XX01",11104,"Analyte01","SERUM","EVERY WEEK",11,1680.75,0.75,0,1680,1.85,"Analyte01","ug/mL","intravascular",35,57,"F","WHITE",0.5,"Hours","cells",0,"Analyte01","Cycle 4 Day 8",1.85,"copies/ug",0,"DOSE 11",339203,"Dummy Treatment Arm A","Dummy Treatment Arm P","24/11/2021 15:15",161,48.8,"kg","cm",0.49,504
"130","XX01",11104,"Analyte01","SERUM","EVERY WEEK",11,1681.5,1.5,0.5,1680.5,16,"Analyte01","ug/mL","intravascular",35,57,"F","WHITE",0.5,"Hours","cells",0,"Analyte01","Cycle 4 Day 8",16,"copies/ug",0,"DOSE 11",339203,"Dummy Treatment Arm A","Dummy Treatment Arm P","01/12/2021 14:50",161,48.8,"kg","cm",0.49,504
"131","XX01",11104,"Analyte01","SERUM","EVERY WEEK",12,1848.92,0.92,0,1848,0.649,"Analyte01","ug/mL","intravascular",35,57,"F","WHITE",0.5,"Hours","cells",0,"Analyte01","Cycle 4 Day 15",0.649,"copies/ug",0,"DOSE 12",339203,"Dummy Treatment Arm A","Dummy Treatment Arm P","01/12/2021 14:50",161,48.8,"kg","cm",0.47,504
"132","XX01",11104,"Analyte01","SERUM","EVERY WEEK",12,1849.58,1.58,0.5,1848.5,12.4,"Analyte01","ug/mL","intravascular",35,57,"F","WHITE",0.5,"Hours","cells",0,"Analyte01","Cycle 4 Day 15",12.4,"copies/ug",0,"DOSE 12",339203,"Dummy Treatment Arm A","Dummy Treatment Arm P","09/12/2021 16:20",161,48.8,"kg","cm",0.51,504
"133","XX01",11104,"Analyte01","SERUM","EVERY WEEK",13,2016.92,0.92,0,2016,1.5,"Analyte01","ug/mL","intravascular",35,57,"F","WHITE",0.5,"Hours","cells",0,"Analyte01","Cycle 5 Day 1",1.5,"copies/ug",0,"DOSE 13",339203,"Dummy Treatment Arm A","Dummy Treatment Arm P","09/12/2021 16:20",161,48.8,"kg","cm",0.44,504
"134","XX01",11104,"Analyte01","SERUM","EVERY WEEK",13,2017.5,1.5,0.5,2016.5,9.73,"Analyte01","ug/mL","intravascular",35,57,"F","WHITE",0.5,"Hours","cells",0,"Analyte01","Cycle 5 Day 1",9.73,"copies/ug",0,"DOSE 13",339203,"Dummy Treatment Arm A","Dummy Treatment Arm P","15/12/2021 14:40",161,48.8,"kg","cm",0.47,504
"135","XX01",11104,"Analyte01","SERUM","EVERY WEEK",14,2184.92,0.92,0,2184,0.902,"Analyte01","ug/mL","intravascular",35,57,"F","WHITE",0.5,"Hours","cells",0,"Analyte01","Cycle 5 Day 8",0.902,"copies/ug",0,"DOSE 14",339203,"Dummy Treatment Arm A","Dummy Treatment Arm P","15/12/2021 14:40",161,48.8,"kg","cm",0.56,504
"136","XX01",11104,"Analyte01","SERUM","EVERY WEEK",14,2185.5,1.5,0.5,2184.5,13.8,"Analyte01","ug/mL","intravascular",35,57,"F","WHITE",0.5,"Hours","cells",0,"Analyte01","Cycle 5 Day 8",13.8,"copies/ug",0,"DOSE 14",339203,"Dummy Treatment Arm A","Dummy Treatment Arm P","22/12/2021 14:30",161,48.8,"kg","cm",0.49,504
"137","XX01",11104,"Analyte01","SERUM","EVERY WEEK",15,2352.83,0.83,0,2352,0.858,"Analyte01","ug/mL","intravascular",35,57,"F","WHITE",0.5,"Hours","cells",0,"Analyte01","Cycle 5 Day 15",0.858,"copies/ug",0,"DOSE 15",339203,"Dummy Treatment Arm A","Dummy Treatment Arm P","22/12/2021 14:30",161,48.8,"kg","cm",0.49,504
"138","XX01",11104,"Analyte01","SERUM","EVERY WEEK",15,2353.5,1.5,0.5,2352.5,13.6,"Analyte01","ug/mL","intravascular",35,57,"F","WHITE",0.5,"Hours","cells",0,"Analyte01","Cycle 5 Day 15",13.6,"copies/ug",0,"DOSE 15",339203,"Dummy Treatment Arm A","Dummy Treatment Arm P","29/12/2021 14:30",161,48.8,"kg","cm",0.49,504
"139","XX01",11104,"Analyte01","SERUM","EVERY WEEK",16,2522,1.5,0,2520.5,14.3,"Analyte01","ug/mL","intravascular",35,57,"F","WHITE",0.5,"Hours","cells",0,"Analyte01","Cycle 6 Day 1",14.3,"copies/ug",0,"DOSE 16",339203,"Dummy Treatment Arm A","Dummy Treatment Arm P","25/01/2022 13:50",161,48.8,"kg","cm",0.49,504
"140","XX01",11104,"Analyte01","SERUM","EVERY WEEK",17,2688.92,0.92,0,2688,1.05,"Analyte01","ug/mL","intravascular",35,57,"F","WHITE",0.5,"Hours","cells",0,"Analyte01","Cycle 6 Day 8",1.05,"copies/ug",0,"DOSE 17",339203,"Dummy Treatment Arm A","Dummy Treatment Arm P","25/01/2022 13:50",161,48.8,"kg","cm",0.44,504
"141","XX01",11104,"Analyte01","SERUM","EVERY WEEK",17,2689.5,1.5,0.5,2688.5,18.4,"Analyte01","ug/mL","intravascular",35,57,"F","WHITE",0.5,"Hours","cells",0,"Analyte01","Cycle 6 Day 8",18.4,"copies/ug",0,"DOSE 17",339203,"Dummy Treatment Arm A","Dummy Treatment Arm P","01/02/2022 15:20",161,48.8,"kg","cm",0.5,504
"142","XX01",11105,"Analyte01","SERUM","EVERY WEEK",1,-0.031666667,-0.031666667,0,0,0,"Analyte01","ug/mL","intravascular",35,74,"F","WHITE",2.02,"Hours","cells",0,"Analyte01","Cycle 1 Day 1",0,"copies/ug",0,"DOSE 1",339203,"Dummy Treatment Arm A","Dummy Treatment Arm P","29/11/2021 12:48",163,67.7,"kg","cm",2.06,504
"143","XX01",11105,"Analyte01","SERUM","EVERY WEEK",1,2.968333333,2.968333333,0.5,0.5,12.2,"Analyte01","ug/mL","intravascular",35,74,"F","WHITE",2.02,"Hours","cells",0,"Analyte01","Cycle 1 Day 1",12.2,"copies/ug",0,"DOSE 1",339203,"Dummy Treatment Arm A","Dummy Treatment Arm P","29/11/2021 12:48",163,67.7,"kg","cm",2,504
"144","XX01",11105,"Analyte01","SERUM","EVERY WEEK",1,5.548333333,5.548333333,4,4,10.8,"Analyte01","ug/mL","intravascular",35,74,"F","WHITE",2.02,"Hours","cells",0,"Analyte01","Cycle 1 Day 1",10.8,"copies/ug",0,"DOSE 1",339203,"Dummy Treatment Arm A","Dummy Treatment Arm P","29/11/2021 12:48",163,67.7,"kg","cm",2.06,504
"145","XX01",11105,"Analyte01","SERUM","EVERY WEEK",1,9.218333333,9.218333333,8,8,10.5,"Analyte01","ug/mL","intravascular",35,74,"F","WHITE",2.02,"Hours","cells",0,"Analyte01","Cycle 1 Day 1",10.5,"copies/ug",0,"DOSE 1",339203,"Dummy Treatment Arm A","Dummy Treatment Arm P","29/11/2021 12:48",163,67.7,"kg","cm",1.96,504
"146","XX01",11105,"Analyte01","SERUM","EVERY WEEK",1,28.46833333,28.46833333,48,48,7.16,"Analyte01","ug/mL","intravascular",35,74,"F","WHITE",2.02,"Hours","cells",0,"Analyte01","Cycle 1 Day 2",7.16,"copies/ug",0,"DOSE 1",339203,"Dummy Treatment Arm A","Dummy Treatment Arm P","29/11/2021 12:48",163,67.7,"kg","cm",2.01,504
"147","XX01",11105,"Analyte01","SERUM","EVERY WEEK",1,73.63833333,73.63833333,144,144,3.67,"Analyte01","ug/mL","intravascular",35,74,"F","WHITE",2.02,"Hours","cells",0,"Analyte01","Cycle 1 Day 4",3.67,"copies/ug",0,"DOSE 1",339203,"Dummy Treatment Arm A","Dummy Treatment Arm P","29/11/2021 12:48",163,67.7,"kg","cm",2.03,504
"148","XX01",11105,"Analyte01","SERUM","EVERY WEEK",1,1369.468333,1369.468333,NA,NA,0,"Analyte01","ug/mL","intravascular",35,74,"F","WHITE",2.02,"Hours","cells",0,"Analyte01","Discontinuation Visit",0,"copies/ug",0,"DOSE 1",339203,"Dummy Treatment Arm A","Dummy Treatment Arm P","29/11/2021 12:48",163,67.7,"kg","cm",2,504
"149","XX01",11106,"Analyte01","SERUM","EVERY WEEK",1,-0.3,-0.3,0,0,0,"Analyte01","ug/mL","intravascular",35,45,"M","WHITE",1.5,"Hours","cells",0,"Analyte01","Cycle 1 Day 1",0,"copies/ug",0,"DOSE 1",339203,"Dummy Treatment Arm A","Dummy Treatment Arm P","03/01/2022 11:54",188,90,"kg","cm",1.49,504
"150","XX01",11106,"Analyte01","SERUM","EVERY WEEK",1,1.55,1.55,0.5,0.5,12.7,"Analyte01","ug/mL","intravascular",35,45,"M","WHITE",1.5,"Hours","cells",0,"Analyte01","Cycle 1 Day 1",12.7,"copies/ug",0,"DOSE 1",339203,"Dummy Treatment Arm A","Dummy Treatment Arm P","03/01/2022 11:54",188,90,"kg","cm",1.56,504
"151","XX01",11106,"Analyte01","SERUM","EVERY WEEK",1,5.98,5.98,4,4,8.66,"Analyte01","ug/mL","intravascular",35,45,"M","WHITE",1.5,"Hours","cells",0,"Analyte01","Cycle 1 Day 1",8.66,"copies/ug",0,"DOSE 1",339203,"Dummy Treatment Arm A","Dummy Treatment Arm P","03/01/2022 11:54",188,90,"kg","cm",1.49,504
"152","XX01",11106,"Analyte01","SERUM","EVERY WEEK",1,7.78,7.78,8,8,11,"Analyte01","ug/mL","intravascular",35,45,"M","WHITE",1.5,"Hours","cells",0,"Analyte01","Cycle 1 Day 1",11,"copies/ug",0,"DOSE 1",339203,"Dummy Treatment Arm A","Dummy Treatment Arm P","03/01/2022 11:54",188,90,"kg","cm",1.54,504
"153","XX01",11106,"Analyte01","SERUM","EVERY WEEK",1,26.35,26.35,48,48,6.36,"Analyte01","ug/mL","intravascular",35,45,"M","WHITE",1.5,"Hours","cells",0,"Analyte01","Cycle 1 Day 2",6.36,"copies/ug",0,"DOSE 1",339203,"Dummy Treatment Arm A","Dummy Treatment Arm P","03/01/2022 11:54",188,90,"kg","cm",1.49,504
"154","XX01",11106,"Analyte01","SERUM","EVERY WEEK",1,73.13,73.13,144,144,3.01,"Analyte01","ug/mL","intravascular",35,45,"M","WHITE",1.5,"Hours","cells",0,"Analyte01","Cycle 1 Day 4",3.01,"copies/ug",0,"DOSE 1",339203,"Dummy Treatment Arm A","Dummy Treatment Arm P","03/01/2022 11:54",188,90,"kg","cm",1.47,504
"155","XX01",11106,"Analyte01","SERUM","EVERY WEEK",2,166.83,-1.17,0,168,1.02,"Analyte01","ug/mL","intravascular",35,45,"M","WHITE",1.5,"Hours","cells",0,"Analyte01","Cycle 1 Day 8",1.02,"copies/ug",0,"DOSE 2",339203,"Dummy Treatment Arm A","Dummy Treatment Arm P","03/01/2022 11:54",188,90,"kg","cm",1.42,504
"156","XX01",11106,"Analyte01","SERUM","EVERY WEEK",2,170.03,2.03,0.5,168.5,14.5,"Analyte01","ug/mL","intravascular",3.5,45,"M","WHITE",2.23,"Hours","cells",0,"Analyte01","Cycle 1 Day 8",14.5,"copies/ug",0,"DOSE 2",339203,"Dummy Treatment Arm A","Dummy Treatment Arm P","10/01/2022 13:51",188,90,"kg","cm",2.18,504
"157","XX01",11106,"Analyte01","SERUM","EVERY WEEK",2,172.7,4.7,4,172,13.7,"Analyte01","ug/mL","intravascular",3.5,45,"M","WHITE",2.23,"Hours","cells",0,"Analyte01","Cycle 1 Day 8",13.7,"copies/ug",0,"DOSE 2",339203,"Dummy Treatment Arm A","Dummy Treatment Arm P","10/01/2022 13:51",188,90,"kg","cm",2.24,504
"158","XX01",11106,"Analyte01","SERUM","EVERY WEEK",2,193.58,25.58,48,216,9.84,"Analyte01","ug/mL","intravascular",3.5,45,"M","WHITE",2.23,"Hours","cells",0,"Analyte01","Cycle 1 Day 9",9.84,"copies/ug",0,"DOSE 2",339203,"Dummy Treatment Arm A","Dummy Treatment Arm P","10/01/2022 13:51",188,90,"kg","cm",2.19,504
"159","XX01",11106,"Analyte01","SERUM","EVERY WEEK",2,264.45,96.45,192,360,1.43,"Analyte01","ug/mL","intravascular",3.5,45,"M","WHITE",2.23,"Hours","cells",0,"Analyte01","Cycle 1 Day 12",1.43,"copies/ug",0,"DOSE 2",339203,"Dummy Treatment Arm A","Dummy Treatment Arm P","10/01/2022 13:51",188,90,"kg","cm",2.22,504
"160","XX01",11106,"Analyte01","SERUM","EVERY WEEK",3,503.18,-0.82,0,504,0.0011,"Analyte01","ug/mL","intravascular",3.5,45,"M","WHITE",2.23,"Hours","cells",0,"Analyte01","Cycle 2 Day 1",0.0011,"copies/ug",0,"DOSE 3",339203,"Dummy Treatment Arm A","Dummy Treatment Arm P","10/01/2022 13:51",188,90,"kg","cm",2.23,504
"161","XX01",11106,"Analyte01","SERUM","EVERY WEEK",3,505.53,1.53,0.5,504.5,12.1,"Analyte01","ug/mL","intravascular",2.15,45,"M","WHITE",1.6,"Hours","cells",0,"Analyte01","Cycle 2 Day 1",12.1,"copies/ug",0,"DOSE 3",339203,"Dummy Treatment Arm A","Dummy Treatment Arm P","31/01/2022 13:42",188,90,"kg","cm",1.61,504
"162","XX01",11106,"Analyte01","SERUM","EVERY WEEK",3,531,27,48,552,6.3,"Analyte01","ug/mL","intravascular",2.15,45,"M","WHITE",1.6,"Hours","cells",0,"Analyte01","Cycle 2 Day 2",6.3,"copies/ug",0,"DOSE 3",339203,"Dummy Treatment Arm A","Dummy Treatment Arm P","31/01/2022 13:42",188,90,"kg","cm",1.63,504
"163","XX01",11106,"Analyte01","SERUM","EVERY WEEK",4,671.13,-0.87,0,672,0.91,"Analyte01","ug/mL","intravascular",2.15,45,"M","WHITE",1.6,"Hours","cells",0,"Analyte01","Cycle 2 Day 8",0.91,"copies/ug",0,"DOSE 4",339203,"Dummy Treatment Arm A","Dummy Treatment Arm P","31/01/2022 13:42",188,90,"kg","cm",1.56,504
"164","XX01",11106,"Analyte01","SERUM","EVERY WEEK",4,673.62,1.62,0.5,672.5,11.5,"Analyte01","ug/mL","intravascular",35,45,"M","WHITE",1.12,"Hours","cells",0,"Analyte01","Cycle 2 Day 8",11.5,"copies/ug",0,"DOSE 4",339203,"Dummy Treatment Arm A","Dummy Treatment Arm P","07/02/2022 13:02",188,90,"kg","cm",1.09,504
"165","XX01",11106,"Analyte01","SERUM","EVERY WEEK",4,698.53,26.53,48,720,9.39,"Analyte01","ug/mL","intravascular",35,45,"M","WHITE",1.12,"Hours","cells",0,"Analyte01","Cycle 2 Day 9",9.39,"copies/ug",0,"DOSE 4",339203,"Dummy Treatment Arm A","Dummy Treatment Arm P","07/02/2022 13:02",188,90,"kg","cm",1.09,504
"166","XX01",11106,"Analyte01","SERUM","EVERY WEEK",4,768.47,96.47,192,864,3.32,"Analyte01","ug/mL","intravascular",35,45,"M","WHITE",1.12,"Hours","cells",0,"Analyte01","Cycle 2 Day 12",3.32,"copies/ug",0,"DOSE 4",339203,"Dummy Treatment Arm A","Dummy Treatment Arm P","07/02/2022 13:02",188,90,"kg","cm",1.06,504
"167","XX01",11106,"Analyte01","SERUM","EVERY WEEK",5,840.18,0.18,0,840,0.721,"Analyte01","ug/mL","intravascular",35,45,"M","WHITE",1.12,"Hours","cells",0,"Analyte01","Cycle 2 Day 15",0.721,"copies/ug",0,"DOSE 5",339203,"Dummy Treatment Arm A","Dummy Treatment Arm P","07/02/2022 13:02",188,90,"kg","cm",1.15,504
"168","XX01",11106,"Analyte01","SERUM","EVERY WEEK",6,1006.73,-1.27,0,1008,0.0118,"Analyte01","ug/mL","intravascular",1.17,45,"M","WHITE",0.07,"Hours","cells",0,"Analyte01","Cycle 3 Day 1",0.0118,"copies/ug",0,"DOSE 6",339203,"Dummy Treatment Arm A","Dummy Treatment Arm P","14/02/2022 12:39",188,90,"kg","cm",0.12,504
"169","XX01",11106,"Analyte01","SERUM","EVERY WEEK",6,1009.57,1.57,0.5,1008.5,12.1,"Analyte01","ug/mL","intravascular",35,45,"M","WHITE",1.18,"Hours","cells",0,"Analyte01","Cycle 3 Day 1",12.1,"copies/ug",0,"DOSE 6",339203,"Dummy Treatment Arm A","Dummy Treatment Arm P","21/02/2022 12:56",188,90,"kg","cm",1.12,504
"170","XX01",11106,"Analyte01","SERUM","EVERY WEEK",7,1175.27,-0.73,0,1176,0.908,"Analyte01","ug/mL","intravascular",35,45,"M","WHITE",1.18,"Hours","cells",0,"Analyte01","Cycle 3 Day 8",0.908,"copies/ug",0,"DOSE 7",339203,"Dummy Treatment Arm A","Dummy Treatment Arm P","21/02/2022 12:56",188,90,"kg","cm",1.14,504
"171","XX01",11106,"Analyte01","SERUM","EVERY WEEK",7,1177.73,1.73,0.5,1176.5,13.1,"Analyte01","ug/mL","intravascular",35,45,"M","WHITE",1.13,"Hours","cells",0,"Analyte01","Cycle 3 Day 8",13.1,"copies/ug",0,"DOSE 7",339203,"Dummy Treatment Arm A","Dummy Treatment Arm P","28/02/2022 16:03",188,90,"kg","cm",1.12,504
"172","XX01",11106,"Analyte01","SERUM","EVERY WEEK",8,1343.68,-0.32,0,1344,1.61,"Analyte01","ug/mL","intravascular",35,45,"M","WHITE",1.13,"Hours","cells",0,"Analyte01","Cycle 3 Day 15",1.61,"copies/ug",0,"DOSE 8",339203,"Dummy Treatment Arm A","Dummy Treatment Arm P","28/02/2022 16:03",188,90,"kg","cm",1.13,504
"173","XX01",11106,"Analyte01","SERUM","EVERY WEEK",8,1345.53,1.53,0.5,1344.5,11.5,"Analyte01","ug/mL","intravascular",35,45,"M","WHITE",1.17,"Hours","cells",0,"Analyte01","Cycle 3 Day 15",11.5,"copies/ug",0,"DOSE 8",339203,"Dummy Treatment Arm A","Dummy Treatment Arm P","07/03/2022 14:10",188,90,"kg","cm",1.17,504
"174","XX01",11106,"Analyte01","SERUM","EVERY WEEK",9,1511.87,-0.13,0,1512,1.46,"Analyte01","ug/mL","intravascular",35,45,"M","WHITE",1.17,"Hours","cells",0,"Analyte01","Cycle 4 Day 1",1.46,"copies/ug",0,"DOSE 9",339203,"Dummy Treatment Arm A","Dummy Treatment Arm P","07/03/2022 14:10",188,90,"kg","cm",1.17,504
"175","XX01",11106,"Analyte01","SERUM","EVERY WEEK",9,1513.55,1.55,0.5,1512.5,14.1,"Analyte01","ug/mL","intravascular",35,45,"M","WHITE",1.18,"Hours","cells",0,"Analyte01","Cycle 4 Day 1",14.1,"copies/ug",0,"DOSE 9",339203,"Dummy Treatment Arm A","Dummy Treatment Arm P","14/03/2022 14:07",188,90,"kg","cm",1.23,504
"176","XX01",11106,"Analyte01","SERUM","EVERY WEEK",10,1679.33,-0.67,0,1680,1.56,"Analyte01","ug/mL","intravascular",35,45,"M","WHITE",1.18,"Hours","cells",0,"Analyte01","Cycle 4 Day 8",1.56,"copies/ug",0,"DOSE 10",339203,"Dummy Treatment Arm A","Dummy Treatment Arm P","14/03/2022 14:07",188,90,"kg","cm",1.2,504
"177","XX01",11106,"Analyte01","SERUM","EVERY WEEK",10,1681.58,1.58,0.5,1680.5,11.6,"Analyte01","ug/mL","intravascular",35,45,"M","WHITE",1.02,"Hours","cells",0,"Analyte01","Cycle 4 Day 8",11.6,"copies/ug",0,"DOSE 10",339203,"Dummy Treatment Arm A","Dummy Treatment Arm P","21/03/2022 13:40",188,90,"kg","cm",1.02,504
"178","XX01",11106,"Analyte01","SERUM","EVERY WEEK",11,1848.45,0.45,0,1848,1.3,"Analyte01","ug/mL","intravascular",35,45,"M","WHITE",1.02,"Hours","cells",0,"Analyte01","Cycle 4 Day 15",1.3,"copies/ug",0,"DOSE 11",339203,"Dummy Treatment Arm A","Dummy Treatment Arm P","21/03/2022 13:40",188,90,"kg","cm",1,504
"179","XX01",11106,"Analyte01","SERUM","EVERY WEEK",11,4700.02,2852.02,840,2688,0,"Analyte01","ug/mL","intravascular",3.5,45,"M","WHITE",0.02,"Hours","cells",0,"Analyte01","Cycle 6 Day 8",0,"copies/ug",0,"DOSE 11",339203,"Dummy Treatment Arm A","Dummy Treatment Arm P","28/03/2022 14:18",188,90,"kg","cm",0.05,504
"180","XX01",11106,"Analyte01","SERUM","EVERY WEEK",11,4865.52,3017.52,1008,2856,0,"Analyte01","ug/mL","intravascular",3.5,45,"M","WHITE",0.02,"Hours","cells",0,"Analyte01","Cycle 6 Day 15",0,"copies/ug",0,"DOSE 11",339203,"Dummy Treatment Arm A","Dummy Treatment Arm P","28/03/2022 14:18",188,90,"kg","cm",0.01,504
"181","XX01",11106,"Analyte01","SERUM","EVERY WEEK",11,5034.27,3186.27,1176,3024,0,"Analyte01","ug/mL","intravascular",3.5,45,"M","WHITE",0.02,"Hours","cells",0,"Analyte01","Cycle 7 Day 1",0,"copies/ug",0,"DOSE 11",339203,"Dummy Treatment Arm A","Dummy Treatment Arm P","28/03/2022 14:18",188,90,"kg","cm",0.03,504
"182","XX01",11106,"Analyte01","SERUM","EVERY WEEK",11,3023.78,1175.78,1176.5,3024.5,0,"Analyte01","ug/mL","intravascular",3.5,45,"M","WHITE",0.02,"Hours","cells",0,"Analyte01","Cycle 7 Day 1",0,"copies/ug",0,"DOSE 11",339203,"Dummy Treatment Arm A","Dummy Treatment Arm P","28/03/2022 14:18",188,90,"kg","cm",0.07,504
"183","XX01",11106,"Analyte01","SERUM","EVERY WEEK",11,5201.43,3353.43,1344,3192,0,"Analyte01","ug/mL","intravascular",3.5,45,"M","WHITE",0.02,"Hours","cells",0,"Analyte01","Cycle 7 Day 8",0,"copies/ug",0,"DOSE 11",339203,"Dummy Treatment Arm A","Dummy Treatment Arm P","28/03/2022 14:18",188,90,"kg","cm",0.09,504
"184","XX01",11106,"Analyte01","SERUM","EVERY WEEK",11,5368.93,3520.93,1512,3360,0,"Analyte01","ug/mL","intravascular",3.5,45,"M","WHITE",0.02,"Hours","cells",0,"Analyte01","Cycle 7 Day 15",0,"copies/ug",0,"DOSE 11",339203,"Dummy Treatment Arm A","Dummy Treatment Arm P","28/03/2022 14:18",188,90,"kg","cm",0.01,504
"185","XX01",11106,"Analyte01","SERUM","EVERY WEEK",11,5564.37,3716.37,1680,3528,0,"Analyte01","ug/mL","intravascular",3.5,45,"M","WHITE",0.02,"Hours","cells",0,"Analyte01","Cycle 8 Day 1",0,"copies/ug",0,"DOSE 11",339203,"Dummy Treatment Arm A","Dummy Treatment Arm P","28/03/2022 14:18",188,90,"kg","cm",0.01,504
"186","XX01",11106,"Analyte01","SERUM","EVERY WEEK",11,3555.45,1707.45,1680.5,3528.5,0,"Analyte01","ug/mL","intravascular",3.5,45,"M","WHITE",0.02,"Hours","cells",0,"Analyte01","Cycle 8 Day 1",0,"copies/ug",0,"DOSE 11",339203,"Dummy Treatment Arm A","Dummy Treatment Arm P","28/03/2022 14:18",188,90,"kg","cm",0.03,504
"187","XX01",11106,"Analyte01","SERUM","EVERY WEEK",11,5708.23,3860.23,1848,3696,0,"Analyte01","ug/mL","intravascular",3.5,45,"M","WHITE",0.02,"Hours","cells",0,"Analyte01","Cycle 8 Day 8",0,"copies/ug",0,"DOSE 11",339203,"Dummy Treatment Arm A","Dummy Treatment Arm P","28/03/2022 14:18",188,90,"kg","cm",0.05,504
"188","XX01",11106,"Analyte01","SERUM","EVERY WEEK",11,5877.57,4029.57,2016,3864,0,"Analyte01","ug/mL","intravascular",3.5,45,"M","WHITE",0.02,"Hours","cells",0,"Analyte01","Cycle 8 Day 15",0,"copies/ug",0,"DOSE 11",339203,"Dummy Treatment Arm A","Dummy Treatment Arm P","28/03/2022 14:18",188,90,"kg","cm",0.03,504
"189","XX01",11106,"Analyte01","SERUM","EVERY WEEK",11,6042.87,4194.87,2184,4032,0,"Analyte01","ug/mL","intravascular",3.5,45,"M","WHITE",0.02,"Hours","cells",0,"Analyte01","Cycle 9 Day 1",0,"copies/ug",0,"DOSE 11",339203,"Dummy Treatment Arm A","Dummy Treatment Arm P","28/03/2022 14:18",188,90,"kg","cm",0.05,504
"190","XX01",11106,"Analyte01","SERUM","EVERY WEEK",11,4032.28,2184.28,2184.5,4032.5,0,"Analyte01","ug/mL","intravascular",3.5,45,"M","WHITE",0.02,"Hours","cells",0,"Analyte01","Cycle 9 Day 1",0,"copies/ug",0,"DOSE 11",339203,"Dummy Treatment Arm A","Dummy Treatment Arm P","28/03/2022 14:18",188,90,"kg","cm",0.01,504
"191","XX01",11106,"Analyte01","SERUM","EVERY WEEK",11,6208.95,4360.95,NA,NA,0,"Analyte01","ug/mL","intravascular",3.5,45,"M","WHITE",0.02,"Hours","cells",0,"Analyte01","Obinutuzumab Retreatment 1 Day 0",0,"copies/ug",0,"DOSE 11",339203,"Dummy Treatment Arm A","Dummy Treatment Arm P","28/03/2022 14:18",188,90,"kg","cm",0.01,504
"192","XX01",11106,"Analyte01","SERUM","EVERY WEEK",11,6233.22,4385.22,NA,NA,0,"Analyte01","ug/mL","intravascular",3.5,45,"M","WHITE",0.02,"Hours","cells",0,"Analyte01","Obinutuzumab Retreatment 1 Day 1",0,"copies/ug",0,"DOSE 11",339203,"Dummy Treatment Arm A","Dummy Treatment Arm P","28/03/2022 14:18",188,90,"kg","cm",0.07,504
"193","XX01",11106,"Analyte01","SERUM","EVERY WEEK",11,6379.88,4531.88,2520,4368,0,"Analyte01","ug/mL","intravascular",3.5,45,"M","WHITE",0.02,"Hours","cells",0,"Analyte01","Cycle 9 Day 15",0,"copies/ug",0,"DOSE 11",339203,"Dummy Treatment Arm A","Dummy Treatment Arm P","28/03/2022 14:18",188,90,"kg","cm",0.04,504
"194","XX01",11106,"Analyte01","SERUM","EVERY WEEK",11,6547.18,4699.18,2688,4536,0,"Analyte01","ug/mL","intravascular",3.5,45,"M","WHITE",0.02,"Hours","cells",0,"Analyte01","Cycle 10 Day 1",0,"copies/ug",0,"DOSE 11",339203,"Dummy Treatment Arm A","Dummy Treatment Arm P","28/03/2022 14:18",188,90,"kg","cm",0.01,504
"195","XX01",11106,"Analyte01","SERUM","EVERY WEEK",11,4536.82,2688.82,2688.5,4536.5,0,"Analyte01","ug/mL","intravascular",3.5,45,"M","WHITE",0.02,"Hours","cells",0,"Analyte01","Cycle 10 Day 1",0,"copies/ug",0,"DOSE 11",339203,"Dummy Treatment Arm A","Dummy Treatment Arm P","28/03/2022 14:18",188,90,"kg","cm",0.02,504
"196","XX01",11106,"Analyte01","SERUM","EVERY WEEK",11,6717.65,4869.65,2856,4704,0,"Analyte01","ug/mL","intravascular",3.5,45,"M","WHITE",0.02,"Hours","cells",0,"Analyte01","Cycle 10 Day 8",0,"copies/ug",0,"DOSE 11",339203,"Dummy Treatment Arm A","Dummy Treatment Arm P","28/03/2022 14:18",188,90,"kg","cm",0.02,504
"197","XX01",11106,"Analyte01","SERUM","EVERY WEEK",11,6884.13,5036.13,3024,4872,0,"Analyte01","ug/mL","intravascular",3.5,45,"M","WHITE",0.02,"Hours","cells",0,"Analyte01","Cycle 10 Day 15",0,"copies/ug",0,"DOSE 11",339203,"Dummy Treatment Arm A","Dummy Treatment Arm P","28/03/2022 14:18",188,90,"kg","cm",0.01,504
"198","XX01",11106,"Analyte01","SERUM","EVERY WEEK",11,7049.43,5201.43,3192,5040,0,"Analyte01","ug/mL","intravascular",3.5,45,"M","WHITE",0.02,"Hours","cells",0,"Analyte01","Cycle 11 Day 1",0,"copies/ug",0,"DOSE 11",339203,"Dummy Treatment Arm A","Dummy Treatment Arm P","28/03/2022 14:18",188,90,"kg","cm",0.02,504
"199","XX01",11106,"Analyte01","SERUM","EVERY WEEK",11,5038.93,3190.93,3192.5,5040.5,0,"Analyte01","ug/mL","intravascular",3.5,45,"M","WHITE",0.02,"Hours","cells",0,"Analyte01","Cycle 11 Day 1",0,"copies/ug",0,"DOSE 11",339203,"Dummy Treatment Arm A","Dummy Treatment Arm P","28/03/2022 14:18",188,90,"kg","cm",0.02,504
"200","XX01",11106,"Analyte01","SERUM","EVERY WEEK",11,7221.4,5373.4,3360,5208,0,"Analyte01","ug/mL","intravascular",3.5,45,"M","WHITE",0.02,"Hours","cells",0,"Analyte01","Cycle 11 Day 8",0,"copies/ug",0,"DOSE 11",339203,"Dummy Treatment Arm A","Dummy Treatment Arm P","28/03/2022 14:18",188,90,"kg","cm",0.04,504
"201","XX01",11106,"Analyte01","SERUM","EVERY WEEK",11,7389.1,5541.1,3528,5376,0,"Analyte01","ug/mL","intravascular",3.5,45,"M","WHITE",0.02,"Hours","cells",0,"Analyte01","Cycle 11 Day 15",0,"copies/ug",0,"DOSE 11",339203,"Dummy Treatment Arm A","Dummy Treatment Arm P","28/03/2022 14:18",188,90,"kg","cm",0.02,504
"202","XX01",11106,"Analyte01","SERUM","EVERY WEEK",11,7553.55,5705.55,3696,5544,0,"Analyte01","ug/mL","intravascular",3.5,45,"M","WHITE",0.02,"Hours","cells",0,"Analyte01","Cycle 12 Day 1",0,"copies/ug",0,"DOSE 11",339203,"Dummy Treatment Arm A","Dummy Treatment Arm P","28/03/2022 14:18",188,90,"kg","cm",0.05,504
"203","XX01",11107,"Analyte01","SERUM","EVERY WEEK",1,-3.818,-3.818,0,0,0,"Analyte01","ug/mL","intravascular",35,48,"F","WHITE",1.63,"Hours","cells",0,"Analyte01","Cycle 1 Day 1",0,"copies/ug",0,"DOSE 1",339203,"Dummy Treatment Arm A","Dummy Treatment Arm P","01/03/2022 13:27",165,83.8,"kg","cm",1.68,504
"204","XX01",11107,"Analyte01","SERUM","EVERY WEEK",1,1.802,1.802,0.5,0.5,22.1,"Analyte01","ug/mL","intravascular",35,48,"F","WHITE",1.63,"Hours","cells",0,"Analyte01","Cycle 1 Day 1",22.1,"copies/ug",0,"DOSE 1",339203,"Dummy Treatment Arm A","Dummy Treatment Arm P","01/03/2022 13:27",165,83.8,"kg","cm",1.63,504
"205","XX01",11107,"Analyte01","SERUM","EVERY WEEK",1,5.632,5.632,4,4,12.5,"Analyte01","ug/mL","intravascular",35,48,"F","WHITE",1.63,"Hours","cells",0,"Analyte01","Cycle 1 Day 1",12.5,"copies/ug",0,"DOSE 1",339203,"Dummy Treatment Arm A","Dummy Treatment Arm P","01/03/2022 13:27",165,83.8,"kg","cm",1.64,504
"206","XX01",11107,"Analyte01","SERUM","EVERY WEEK",1,8.012,8.012,8,8,11.2,"Analyte01","ug/mL","intravascular",35,48,"F","WHITE",1.63,"Hours","cells",0,"Analyte01","Cycle 1 Day 1",11.2,"copies/ug",0,"DOSE 1",339203,"Dummy Treatment Arm A","Dummy Treatment Arm P","01/03/2022 13:27",165,83.8,"kg","cm",1.66,504
"207","XX01",11107,"Analyte01","SERUM","EVERY WEEK",1,26.182,26.182,48,48,7.83,"Analyte01","ug/mL","intravascular",35,48,"F","WHITE",1.63,"Hours","cells",0,"Analyte01","Cycle 1 Day 2",7.83,"copies/ug",0,"DOSE 1",339203,"Dummy Treatment Arm A","Dummy Treatment Arm P","01/03/2022 13:27",165,83.8,"kg","cm",1.66,504
"208","XX01",11107,"Analyte01","SERUM","EVERY WEEK",1,73.682,73.682,144,144,4.48,"Analyte01","ug/mL","intravascular",35,48,"F","WHITE",1.63,"Hours","cells",0,"Analyte01","Cycle 1 Day 4",4.48,"copies/ug",0,"DOSE 1",339203,"Dummy Treatment Arm A","Dummy Treatment Arm P","01/03/2022 13:27",165,83.8,"kg","cm",1.67,504
"209","XX01",11107,"Analyte01","SERUM","EVERY WEEK",2,168.462,0.462,0,168,1,"Analyte01","ug/mL","intravascular",35,48,"F","WHITE",1.63,"Hours","cells",0,"Analyte01","Cycle 1 Day 8",1,"copies/ug",0,"DOSE 2",339203,"Dummy Treatment Arm A","Dummy Treatment Arm P","01/03/2022 13:27",165,83.8,"kg","cm",1.67,504
"210","XX01",11107,"Analyte01","SERUM","EVERY WEEK",2,169.802,1.802,0.5,168.5,18.2,"Analyte01","ug/mL","intravascular",35,48,"F","WHITE",1.03,"Hours","cells",0,"Analyte01","Cycle 1 Day 8",18.2,"copies/ug",0,"DOSE 2",339203,"Dummy Treatment Arm A","Dummy Treatment Arm P","08/03/2022 12:40",165,83.8,"kg","cm",1,504
"211","XX01",11107,"Analyte01","SERUM","EVERY WEEK",2,172.632,4.632,4,172,14.7,"Analyte01","ug/mL","intravascular",35,48,"F","WHITE",1.03,"Hours","cells",0,"Analyte01","Cycle 1 Day 8",14.7,"copies/ug",0,"DOSE 2",339203,"Dummy Treatment Arm A","Dummy Treatment Arm P","08/03/2022 12:40",165,83.8,"kg","cm",1.07,504
"212","XX01",11107,"Analyte01","SERUM","EVERY WEEK",2,192.302,24.302,48,216,9.06,"Analyte01","ug/mL","intravascular",35,48,"F","WHITE",1.03,"Hours","cells",0,"Analyte01","Cycle 1 Day 9",9.06,"copies/ug",0,"DOSE 2",339203,"Dummy Treatment Arm A","Dummy Treatment Arm P","08/03/2022 12:40",165,83.8,"kg","cm",0.99,504
"213","XX01",11107,"Analyte01","SERUM","EVERY WEEK",2,242.052,74.052,192,360,4.24,"Analyte01","ug/mL","intravascular",35,48,"F","WHITE",1.03,"Hours","cells",0,"Analyte01","Cycle 1 Day 12",4.24,"copies/ug",0,"DOSE 2",339203,"Dummy Treatment Arm A","Dummy Treatment Arm P","08/03/2022 12:40",165,83.8,"kg","cm",0.97,504
"214","XX01",11107,"Analyte01","SERUM","EVERY WEEK",3,504.702,0.702,0,504,0.0058,"Analyte01","ug/mL","intravascular",35,48,"F","WHITE",1.03,"Hours","cells",0,"Analyte01","Cycle 2 Day 1",0.0058,"copies/ug",0,"DOSE 3",339203,"Dummy Treatment Arm A","Dummy Treatment Arm P","08/03/2022 12:40",165,83.8,"kg","cm",1.03,504
"215","XX01",11107,"Analyte01","SERUM","EVERY WEEK",3,505.862,1.862,0.5,504.5,23,"Analyte01","ug/mL","intravascular",35,48,"F","WHITE",0.55,"Hours","cells",0,"Analyte01","Cycle 2 Day 1",23,"copies/ug",0,"DOSE 3",339203,"Dummy Treatment Arm A","Dummy Treatment Arm P","22/03/2022 11:26",165,83.8,"kg","cm",0.56,504
"216","XX01",11107,"Analyte01","SERUM","EVERY WEEK",3,531.452,27.452,48,552,7.62,"Analyte01","ug/mL","intravascular",35,48,"F","WHITE",0.55,"Hours","cells",0,"Analyte01","Cycle 2 Day 2",7.62,"copies/ug",0,"DOSE 3",339203,"Dummy Treatment Arm A","Dummy Treatment Arm P","22/03/2022 11:26",165,83.8,"kg","cm",0.54,504
"217","XX01",11107,"Analyte01","SERUM","EVERY WEEK",4,672.612,0.612,0,672,0.6,"Analyte01","ug/mL","intravascular",35,48,"F","WHITE",0.55,"Hours","cells",0,"Analyte01","Cycle 2 Day 8",0.6,"copies/ug",0,"DOSE 4",339203,"Dummy Treatment Arm A","Dummy Treatment Arm P","22/03/2022 11:26",165,83.8,"kg","cm",0.54,504
"218","XX01",11107,"Analyte01","SERUM","EVERY WEEK",4,673.752,1.752,0.5,672.5,22.8,"Analyte01","ug/mL","intravascular",35,48,"F","WHITE",0.6,"Hours","cells",0,"Analyte01","Cycle 2 Day 8",22.8,"copies/ug",0,"DOSE 4",339203,"Dummy Treatment Arm A","Dummy Treatment Arm P","29/03/2022 12:01",165,83.8,"kg","cm",0.57,504
"219","XX01",11107,"Analyte01","SERUM","EVERY WEEK",4,697.112,25.112,48,720,7.43,"Analyte01","ug/mL","intravascular",35,48,"F","WHITE",0.6,"Hours","cells",0,"Analyte01","Cycle 2 Day 9",7.43,"copies/ug",0,"DOSE 4",339203,"Dummy Treatment Arm A","Dummy Treatment Arm P","29/03/2022 12:01",165,83.8,"kg","cm",0.58,504
"220","XX01",11107,"Analyte01","SERUM","EVERY WEEK",4,746.952,74.952,192,864,3.33,"Analyte01","ug/mL","intravascular",35,48,"F","WHITE",0.6,"Hours","cells",0,"Analyte01","Cycle 2 Day 12",3.33,"copies/ug",0,"DOSE 4",339203,"Dummy Treatment Arm A","Dummy Treatment Arm P","29/03/2022 12:01",165,83.8,"kg","cm",0.62,504
"221","XX01",11107,"Analyte01","SERUM","EVERY WEEK",5,840.752,0.752,0,840,0.484,"Analyte01","ug/mL","intravascular",35,48,"F","WHITE",0.6,"Hours","cells",0,"Analyte01","Cycle 2 Day 15",0.484,"copies/ug",0,"DOSE 5",339203,"Dummy Treatment Arm A","Dummy Treatment Arm P","29/03/2022 12:01",165,83.8,"kg","cm",0.59,504
"222","XX01",11107,"Analyte01","SERUM","EVERY WEEK",5,841.832,1.832,0.5,840.5,16.3,"Analyte01","ug/mL","intravascular",35,48,"F","WHITE",0.58,"Hours","cells",0,"Analyte01","Cycle 2 Day 15",16.3,"copies/ug",0,"DOSE 5",339203,"Dummy Treatment Arm A","Dummy Treatment Arm P","05/04/2022 12:58",165,83.8,"kg","cm",0.61,504
"223","XX01",11107,"Analyte01","SERUM","EVERY WEEK",6,1007.782,-0.218,0,1008,1.03,"Analyte01","ug/mL","intravascular",35,48,"F","WHITE",0.58,"Hours","cells",0,"Analyte01","Cycle 3 Day 1",1.03,"copies/ug",0,"DOSE 6",339203,"Dummy Treatment Arm A","Dummy Treatment Arm P","05/04/2022 12:58",165,83.8,"kg","cm",0.58,504
"224","XX01",11107,"Analyte01","SERUM","EVERY WEEK",6,1009.662,1.662,0.5,1008.5,11.8,"Analyte01","ug/mL","intravascular",35,48,"F","WHITE",0.55,"Hours","cells",0,"Analyte01","Cycle 3 Day 1",11.8,"copies/ug",0,"DOSE 6",339203,"Dummy Treatment Arm A","Dummy Treatment Arm P","12/04/2022 12:16",165,83.8,"kg","cm",0.52,504
"225","XX01",11107,"Analyte01","SERUM","EVERY WEEK",7,1173.712,-2.288,0,1176,0.601,"Analyte01","ug/mL","intravascular",35,48,"F","WHITE",0.55,"Hours","cells",0,"Analyte01","Cycle 3 Day 8",0.601,"copies/ug",0,"DOSE 7",339203,"Dummy Treatment Arm A","Dummy Treatment Arm P","12/04/2022 12:16",165,83.8,"kg","cm",0.5,504
"226","XX01",11107,"Analyte01","SERUM","EVERY WEEK",7,1177.882,1.882,0.5,1176.5,17.6,"Analyte01","ug/mL","intravascular",35,48,"F","WHITE",0.55,"Hours","cells",0,"Analyte01","Cycle 3 Day 8",17.6,"copies/ug",0,"DOSE 7",339203,"Dummy Treatment Arm A","Dummy Treatment Arm P","19/04/2022 13:15",165,83.8,"kg","cm",0.57,504
"227","XX01",11107,"Analyte01","SERUM","EVERY WEEK",8,1344.932,0.932,0,1344,0.683,"Analyte01","ug/mL","intravascular",35,48,"F","WHITE",0.55,"Hours","cells",0,"Analyte01","Cycle 3 Day 15",0.683,"copies/ug",0,"DOSE 8",339203,"Dummy Treatment Arm A","Dummy Treatment Arm P","19/04/2022 13:15",165,83.8,"kg","cm",0.59,504
"228","XX01",11107,"Analyte01","SERUM","EVERY WEEK",8,1345.682,1.682,0.5,1344.5,27,"Analyte01","ug/mL","intravascular",35,48,"F","WHITE",0.55,"Hours","cells",0,"Analyte01","Cycle 3 Day 15",27,"copies/ug",0,"DOSE 8",339203,"Dummy Treatment Arm A","Dummy Treatment Arm P","26/04/2022 12:07",165,83.8,"kg","cm",0.58,504
"229","XX01",11107,"Analyte01","SERUM","EVERY WEEK",9,1512.982,0.982,0,1512,0.394,"Analyte01","ug/mL","intravascular",35,48,"F","WHITE",0.55,"Hours","cells",0,"Analyte01","Cycle 4 Day 1",0.394,"copies/ug",0,"DOSE 9",339203,"Dummy Treatment Arm A","Dummy Treatment Arm P","26/04/2022 12:07",165,83.8,"kg","cm",0.56,504
"230","XX01",11107,"Analyte01","SERUM","EVERY WEEK",9,1513.812,1.812,0.5,1512.5,19.8,"Analyte01","ug/mL","intravascular",35,48,"F","WHITE",0.55,"Hours","cells",0,"Analyte01","Cycle 4 Day 1",19.8,"copies/ug",0,"DOSE 9",339203,"Dummy Treatment Arm A","Dummy Treatment Arm P","03/05/2022 12:19",165,83.8,"kg","cm",0.56,504
"231","XX01",11107,"Analyte01","SERUM","EVERY WEEK",9,1655.312,143.312,NA,NA,0.589,"Analyte01","ug/mL","intravascular",35,48,"F","WHITE",0.55,"Hours","cells",0,"Analyte01","Discontinuation Visit",0.589,"copies/ug",0,"DOSE 9",339203,"Dummy Treatment Arm A","Dummy Treatment Arm P","03/05/2022 12:19",165,83.8,"kg","cm",0.54,504
"232","XX01",11108,"Analyte01","SERUM","EVERY WEEK",1,-0.3,-0.3,0,0,0,"Analyte01","ug/mL","intravascular",35,65,"M","WHITE",1.75,"Hours","cells",0,"Analyte01","Cycle 1 Day 1",0,"copies/ug",0,"DOSE 1",339203,"Dummy Treatment Arm A","Dummy Treatment Arm P","07/02/2022 15:50",168,60.7,"kg","cm",1.78,504
"233","XX01",11108,"Analyte01","SERUM","EVERY WEEK",1,1.85,1.85,0.5,0.5,9.92,"Analyte01","ug/mL","intravascular",35,65,"M","WHITE",1.75,"Hours","cells",0,"Analyte01","Cycle 1 Day 1",9.92,"copies/ug",0,"DOSE 1",339203,"Dummy Treatment Arm A","Dummy Treatment Arm P","07/02/2022 15:50",168,60.7,"kg","cm",1.79,504
"234","XX01",11108,"Analyte01","SERUM","EVERY WEEK",1,5.6,5.6,4,4,8.32,"Analyte01","ug/mL","intravascular",35,65,"M","WHITE",1.75,"Hours","cells",0,"Analyte01","Cycle 1 Day 1",8.32,"copies/ug",0,"DOSE 1",339203,"Dummy Treatment Arm A","Dummy Treatment Arm P","07/02/2022 15:50",168,60.7,"kg","cm",1.78,504
"235","XX01",11108,"Analyte01","SERUM","EVERY WEEK",1,9.8,9.8,8,8,6.69,"Analyte01","ug/mL","intravascular",35,65,"M","WHITE",1.75,"Hours","cells",0,"Analyte01","Cycle 1 Day 1",6.69,"copies/ug",0,"DOSE 1",339203,"Dummy Treatment Arm A","Dummy Treatment Arm P","07/02/2022 15:50",168,60.7,"kg","cm",1.76,504
"236","XX01",11108,"Analyte01","SERUM","EVERY WEEK",1,25.37,25.37,48,48,5.86,"Analyte01","ug/mL","intravascular",35,65,"M","WHITE",1.75,"Hours","cells",0,"Analyte01","Cycle 1 Day 2",5.86,"copies/ug",0,"DOSE 1",339203,"Dummy Treatment Arm A","Dummy Treatment Arm P","07/02/2022 15:50",168,60.7,"kg","cm",1.79,504
"237","XX01",11108,"Analyte01","SERUM","EVERY WEEK",1,72.58,72.58,144,144,2.58,"Analyte01","ug/mL","intravascular",35,65,"M","WHITE",1.75,"Hours","cells",0,"Analyte01","Cycle 1 Day 4",2.58,"copies/ug",0,"DOSE 1",339203,"Dummy Treatment Arm A","Dummy Treatment Arm P","07/02/2022 15:50",168,60.7,"kg","cm",1.76,504
"238","XX01",11108,"Analyte01","SERUM","EVERY WEEK",2,166.45,-1.55,0,168,0.489,"Analyte01","ug/mL","intravascular",35,65,"M","WHITE",1.75,"Hours","cells",0,"Analyte01","Cycle 1 Day 8",0.489,"copies/ug",0,"DOSE 2",339203,"Dummy Treatment Arm A","Dummy Treatment Arm P","07/02/2022 15:50",168,60.7,"kg","cm",1.71,504
"239","XX01",11108,"Analyte01","SERUM","EVERY WEEK",2,169.87,1.87,0.5,168.5,7.49,"Analyte01","ug/mL","intravascular",35,65,"M","WHITE",1.08,"Hours","cells",0,"Analyte01","Cycle 1 Day 8",7.49,"copies/ug",0,"DOSE 2",339203,"Dummy Treatment Arm A","Dummy Treatment Arm P","14/02/2022 16:05",168,60.7,"kg","cm",1.07,504
"240","XX01",11108,"Analyte01","SERUM","EVERY WEEK",2,172.75,4.75,4,172,7.56,"Analyte01","ug/mL","intravascular",35,65,"M","WHITE",1.08,"Hours","cells",0,"Analyte01","Cycle 1 Day 8",7.56,"copies/ug",0,"DOSE 2",339203,"Dummy Treatment Arm A","Dummy Treatment Arm P","14/02/2022 16:05",168,60.7,"kg","cm",1.07,504
"241","XX01",11108,"Analyte01","SERUM","EVERY WEEK",2,191.67,23.67,48,216,6.1,"Analyte01","ug/mL","intravascular",35,65,"M","WHITE",1.08,"Hours","cells",0,"Analyte01","Cycle 1 Day 9",6.1,"copies/ug",0,"DOSE 2",339203,"Dummy Treatment Arm A","Dummy Treatment Arm P","14/02/2022 16:05",168,60.7,"kg","cm",1.06,504
"242","XX01",11108,"Analyte01","SERUM","EVERY WEEK",2,261.82,93.82,192,360,1.97,"Analyte01","ug/mL","intravascular",35,65,"M","WHITE",1.08,"Hours","cells",0,"Analyte01","Cycle 1 Day 12",1.97,"copies/ug",0,"DOSE 2",339203,"Dummy Treatment Arm A","Dummy Treatment Arm P","14/02/2022 16:05",168,60.7,"kg","cm",1.04,504
"243","XX01",11108,"Analyte01","SERUM","EVERY WEEK",3,336.83,0.83,0,336,0.534,"Analyte01","ug/mL","intravascular",35,65,"M","WHITE",1.08,"Hours","cells",0,"Analyte01","Cycle 1 Day 15",0.534,"copies/ug",0,"DOSE 3",339203,"Dummy Treatment Arm A","Dummy Treatment Arm P","14/02/2022 16:05",168,60.7,"kg","cm",1.12,504
"244","XX01",11108,"Analyte01","SERUM","EVERY WEEK",3,337.83,1.83,0.5,336.5,9.51,"Analyte01","ug/mL","intravascular",35,65,"M","WHITE",0.65,"Hours","cells",0,"Analyte01","Cycle 1 Day 15",9.51,"copies/ug",0,"DOSE 3",339203,"Dummy Treatment Arm A","Dummy Treatment Arm P","21/02/2022 13:25",168,60.7,"kg","cm",0.64,504
"245","XX01",11108,"Analyte01","SERUM","EVERY WEEK",3,362,26,48,384,6.14,"Analyte01","ug/mL","intravascular",35,65,"M","WHITE",0.65,"Hours","cells",0,"Analyte01","Cycle 1 Day 16",6.14,"copies/ug",0,"DOSE 3",339203,"Dummy Treatment Arm A","Dummy Treatment Arm P","21/02/2022 13:25",168,60.7,"kg","cm",0.69,504
"246","XX01",11108,"Analyte01","SERUM","EVERY WEEK",3,527.92,191.92,NA,NA,0.491,"Analyte01","ug/mL","intravascular",35,65,"M","WHITE",0.65,"Hours","cells",0,"Analyte01","Discontinuation Visit",0.491,"copies/ug",0,"DOSE 3",339203,"Dummy Treatment Arm A","Dummy Treatment Arm P","21/02/2022 13:25",168,60.7,"kg","cm",0.67,504
"247","XX01",11109,"Analyte01","SERUM","EVERY WEEK",1,-0.838,-0.838,0,0,0,"Analyte01","ug/mL","intravascular",35,61,"M","WHITE",1.53,"Hours","cells",0,"Analyte01","Cycle 1 Day 1",0,"copies/ug",0,"DOSE 1",339203,"Dummy Treatment Arm A","Dummy Treatment Arm P","28/02/2022 12:35",172,100.3,"kg","cm",1.48,504
"248","XX01",11109,"Analyte01","SERUM","EVERY WEEK",1,1.602,1.602,0.5,0.5,7.58,"Analyte01","ug/mL","intravascular",35,61,"M","WHITE",1.53,"Hours","cells",0,"Analyte01","Cycle 1 Day 1",7.58,"copies/ug",0,"DOSE 1",339203,"Dummy Treatment Arm A","Dummy Treatment Arm P","28/02/2022 12:35",172,100.3,"kg","cm",1.52,504
"249","XX01",11109,"Analyte01","SERUM","EVERY WEEK",1,5.512,5.512,4,4,5.76,"Analyte01","ug/mL","intravascular",35,61,"M","WHITE",1.53,"Hours","cells",0,"Analyte01","Cycle 1 Day 1",5.76,"copies/ug",0,"DOSE 1",339203,"Dummy Treatment Arm A","Dummy Treatment Arm P","28/02/2022 12:35",172,100.3,"kg","cm",1.54,504
"250","XX01",11109,"Analyte01","SERUM","EVERY WEEK",1,9.782,9.782,8,8,4.45,"Analyte01","ug/mL","intravascular",35,61,"M","WHITE",1.53,"Hours","cells",0,"Analyte01","Cycle 1 Day 1",4.45,"copies/ug",0,"DOSE 1",339203,"Dummy Treatment Arm A","Dummy Treatment Arm P","28/02/2022 12:35",172,100.3,"kg","cm",1.52,504
"251","XX01",11109,"Analyte01","SERUM","EVERY WEEK",1,24.652,24.652,48,48,2.61,"Analyte01","ug/mL","intravascular",35,61,"M","WHITE",1.53,"Hours","cells",0,"Analyte01","Cycle 1 Day 2",2.61,"copies/ug",0,"DOSE 1",339203,"Dummy Treatment Arm A","Dummy Treatment Arm P","28/02/2022 12:35",172,100.3,"kg","cm",1.59,504
"252","XX01",11109,"Analyte01","SERUM","EVERY WEEK",1,74.752,74.752,144,144,0.703,"Analyte01","ug/mL","intravascular",35,61,"M","WHITE",1.53,"Hours","cells",0,"Analyte01","Cycle 1 Day 4",0.703,"copies/ug",0,"DOSE 1",339203,"Dummy Treatment Arm A","Dummy Treatment Arm P","28/02/2022 12:35",172,100.3,"kg","cm",1.55,504
"253","XX01",11109,"Analyte01","SERUM","EVERY WEEK",2,167.962,-0.038,0,168,0.024,"Analyte01","ug/mL","intravascular",35,61,"M","WHITE",1.53,"Hours","cells",0,"Analyte01","Cycle 1 Day 8",0.024,"copies/ug",0,"DOSE 2",339203,"Dummy Treatment Arm A","Dummy Treatment Arm P","28/02/2022 12:35",172,100.3,"kg","cm",1.52,504
"254","XX01",11109,"Analyte01","SERUM","EVERY WEEK",2,169.612,1.612,0.5,168.5,7.83,"Analyte01","ug/mL","intravascular",35,61,"M","WHITE",1.17,"Hours","cells",0,"Analyte01","Cycle 1 Day 8",7.83,"copies/ug",0,"DOSE 2",339203,"Dummy Treatment Arm A","Dummy Treatment Arm P","07/03/2022 11:35",172,100.3,"kg","cm",1.12,504
"255","XX01",11109,"Analyte01","SERUM","EVERY WEEK",2,172.582,4.582,4,172,6.47,"Analyte01","ug/mL","intravascular",35,61,"M","WHITE",1.17,"Hours","cells",0,"Analyte01","Cycle 1 Day 8",6.47,"copies/ug",0,"DOSE 2",339203,"Dummy Treatment Arm A","Dummy Treatment Arm P","07/03/2022 11:35",172,100.3,"kg","cm",1.19,504
"256","XX01",11109,"Analyte01","SERUM","EVERY WEEK",2,193.582,25.582,48,216,3.47,"Analyte01","ug/mL","intravascular",35,61,"M","WHITE",1.17,"Hours","cells",0,"Analyte01","Cycle 1 Day 9",3.47,"copies/ug",0,"DOSE 2",339203,"Dummy Treatment Arm A","Dummy Treatment Arm P","07/03/2022 11:35",172,100.3,"kg","cm",1.11,504
"257","XX01",11109,"Analyte01","SERUM","EVERY WEEK",2,265.512,97.512,192,360,0.102,"Analyte01","ug/mL","intravascular",35,61,"M","WHITE",1.17,"Hours","cells",0,"Analyte01","Cycle 1 Day 12",0.102,"copies/ug",0,"DOSE 2",339203,"Dummy Treatment Arm A","Dummy Treatment Arm P","07/03/2022 11:35",172,100.3,"kg","cm",1.14,504
"258","XX01",11109,"Analyte01","SERUM","EVERY WEEK",3,336.202,0.202,0,336,0.0105,"Analyte01","ug/mL","intravascular",35,61,"M","WHITE",1.17,"Hours","cells",0,"Analyte01","Cycle 1 Day 15",0.0105,"copies/ug",0,"DOSE 3",339203,"Dummy Treatment Arm A","Dummy Treatment Arm P","07/03/2022 11:35",172,100.3,"kg","cm",1.18,504
"259","XX01",11109,"Analyte01","SERUM","EVERY WEEK",3,337.532,1.532,0.5,336.5,9.79,"Analyte01","ug/mL","intravascular",35,61,"M","WHITE",0.65,"Hours","cells",0,"Analyte01","Cycle 1 Day 15",9.79,"copies/ug",0,"DOSE 3",339203,"Dummy Treatment Arm A","Dummy Treatment Arm P","14/03/2022 11:52",172,100.3,"kg","cm",0.65,504
"260","XX01",11109,"Analyte01","SERUM","EVERY WEEK",3,361.712,25.712,48,384,3.89,"Analyte01","ug/mL","intravascular",35,61,"M","WHITE",0.65,"Hours","cells",0,"Analyte01","Cycle 1 Day 16",3.89,"copies/ug",0,"DOSE 3",339203,"Dummy Treatment Arm A","Dummy Treatment Arm P","14/03/2022 11:52",172,100.3,"kg","cm",0.62,504
"261","XX01",11109,"Analyte01","SERUM","EVERY WEEK",4,504.332,0.332,0,504,0.0111,"Analyte01","ug/mL","intravascular",35,61,"M","WHITE",0.65,"Hours","cells",0,"Analyte01","Cycle 2 Day 1",0.0111,"copies/ug",0,"DOSE 4",339203,"Dummy Treatment Arm A","Dummy Treatment Arm P","14/03/2022 11:52",172,100.3,"kg","cm",0.67,504
"262","XX01",11109,"Analyte01","SERUM","EVERY WEEK",4,505.582,1.582,0.5,504.5,7.5,"Analyte01","ug/mL","intravascular",35,61,"M","WHITE",0.5,"Hours","cells",0,"Analyte01","Cycle 2 Day 1",7.5,"copies/ug",0,"DOSE 4",339203,"Dummy Treatment Arm A","Dummy Treatment Arm P","21/03/2022 11:27",172,100.3,"kg","cm",0.49,504
"263","XX01",11109,"Analyte01","SERUM","EVERY WEEK",4,529.062,25.062,48,552,2.2,"Analyte01","ug/mL","intravascular",35,61,"M","WHITE",0.5,"Hours","cells",0,"Analyte01","Cycle 2 Day 2",2.2,"copies/ug",0,"DOSE 4",339203,"Dummy Treatment Arm A","Dummy Treatment Arm P","21/03/2022 11:27",172,100.3,"kg","cm",0.47,504
"264","XX01",11109,"Analyte01","SERUM","EVERY WEEK",5,672.102,0.102,0,672,0.0268,"Analyte01","ug/mL","intravascular",35,61,"M","WHITE",0.5,"Hours","cells",0,"Analyte01","Cycle 2 Day 8",0.0268,"copies/ug",0,"DOSE 5",339203,"Dummy Treatment Arm A","Dummy Treatment Arm P","21/03/2022 11:27",172,100.3,"kg","cm",0.5,504
"265","XX01",11109,"Analyte01","SERUM","EVERY WEEK",5,673.682,1.682,0.5,672.5,8.87,"Analyte01","ug/mL","intravascular",35,61,"M","WHITE",0.6,"Hours","cells",0,"Analyte01","Cycle 2 Day 8",8.87,"copies/ug",0,"DOSE 5",339203,"Dummy Treatment Arm A","Dummy Treatment Arm P","28/03/2022 12:06",172,100.3,"kg","cm",0.54,504
"266","XX01",11109,"Analyte01","SERUM","EVERY WEEK",5,699.452,27.452,48,720,3.57,"Analyte01","ug/mL","intravascular",35,61,"M","WHITE",0.6,"Hours","cells",0,"Analyte01","Cycle 2 Day 9",3.57,"copies/ug",0,"DOSE 5",339203,"Dummy Treatment Arm A","Dummy Treatment Arm P","28/03/2022 12:06",172,100.3,"kg","cm",0.6,504
"267","XX01",11109,"Analyte01","SERUM","EVERY WEEK",5,768.332,96.332,192,864,0.325,"Analyte01","ug/mL","intravascular",35,61,"M","WHITE",0.6,"Hours","cells",0,"Analyte01","Cycle 2 Day 12",0.325,"copies/ug",0,"DOSE 5",339203,"Dummy Treatment Arm A","Dummy Treatment Arm P","28/03/2022 12:06",172,100.3,"kg","cm",0.64,504
"268","XX01",11109,"Analyte01","SERUM","EVERY WEEK",6,838.562,-1.438,0,840,0.0378,"Analyte01","ug/mL","intravascular",35,61,"M","WHITE",0.6,"Hours","cells",0,"Analyte01","Cycle 2 Day 15",0.0378,"copies/ug",0,"DOSE 6",339203,"Dummy Treatment Arm A","Dummy Treatment Arm P","28/03/2022 12:06",172,100.3,"kg","cm",0.6,504
"269","XX01",11109,"Analyte01","SERUM","EVERY WEEK",6,841.652,1.652,0.5,840.5,7.19,"Analyte01","ug/mL","intravascular",35,61,"M","WHITE",0.58,"Hours","cells",0,"Analyte01","Cycle 2 Day 15",7.19,"copies/ug",0,"DOSE 6",339203,"Dummy Treatment Arm A","Dummy Treatment Arm P","04/04/2022 14:03",172,100.3,"kg","cm",0.6,504
"270","XX01",11110,"Analyte01","SERUM","EVERY WEEK",1,-0.846,-0.846,0,0,0,"Analyte01","ug/mL","intravascular",35,65,"M","WHITE",1.53,"Hours","cells",0,"Analyte01","Cycle 1 Day 1",0,"copies/ug",0,"DOSE 1",339203,"Dummy Treatment Arm A","Dummy Treatment Arm P","29/06/2022 15:06",170,70,"kg","cm",1.54,504
"271","XX01",11110,"Analyte01","SERUM","EVERY WEEK",1,1.604,1.604,0.5,0.5,8.83,"Analyte01","ug/mL","intravascular",35,65,"M","WHITE",1.53,"Hours","cells",0,"Analyte01","Cycle 1 Day 1",8.83,"copies/ug",0,"DOSE 1",339203,"Dummy Treatment Arm A","Dummy Treatment Arm P","29/06/2022 15:06",170,70,"kg","cm",1.49,504
"272","XX01",11110,"Analyte01","SERUM","EVERY WEEK",1,3.714,3.714,4,4,7.15,"Analyte01","ug/mL","intravascular",35,65,"M","WHITE",1.53,"Hours","cells",0,"Analyte01","Cycle 1 Day 1",7.15,"copies/ug",0,"DOSE 1",339203,"Dummy Treatment Arm A","Dummy Treatment Arm P","29/06/2022 15:06",170,70,"kg","cm",1.49,504
"273","XX01",11110,"Analyte01","SERUM","EVERY WEEK",1,7.664,7.664,8,8,5.41,"Analyte01","ug/mL","intravascular",35,65,"M","WHITE",1.53,"Hours","cells",0,"Analyte01","Cycle 1 Day 1",5.41,"copies/ug",0,"DOSE 1",339203,"Dummy Treatment Arm A","Dummy Treatment Arm P","29/06/2022 15:06",170,70,"kg","cm",1.5,504
"274","XX01",11110,"Analyte01","SERUM","EVERY WEEK",1,25.784,25.784,48,48,4.75,"Analyte01","ug/mL","intravascular",35,65,"M","WHITE",1.53,"Hours","cells",0,"Analyte01","Cycle 1 Day 2",4.75,"copies/ug",0,"DOSE 1",339203,"Dummy Treatment Arm A","Dummy Treatment Arm P","29/06/2022 15:06",170,70,"kg","cm",1.52,504
"275","XX01",11110,"Analyte01","SERUM","EVERY WEEK",1,70.204,70.204,144,144,1.74,"Analyte01","ug/mL","intravascular",35,65,"M","WHITE",1.53,"Hours","cells",0,"Analyte01","Cycle 1 Day 4",1.74,"copies/ug",0,"DOSE 1",339203,"Dummy Treatment Arm A","Dummy Treatment Arm P","29/06/2022 15:06",170,70,"kg","cm",1.53,504
"276","XX01",11110,"Analyte01","SERUM","EVERY WEEK",2,167.904,-0.096,0,168,0.201,"Analyte01","ug/mL","intravascular",35,65,"M","WHITE",1.53,"Hours","cells",0,"Analyte01","Cycle 1 Day 8",0.201,"copies/ug",0,"DOSE 2",339203,"Dummy Treatment Arm A","Dummy Treatment Arm P","29/06/2022 15:06",170,70,"kg","cm",1.54,504
"277","XX01",11110,"Analyte01","SERUM","EVERY WEEK",2,169.704,1.704,0.5,168.5,10.1,"Analyte01","ug/mL","intravascular",35,65,"M","WHITE",1.2,"Hours","cells",0,"Analyte01","Cycle 1 Day 8",10.1,"copies/ug",0,"DOSE 2",339203,"Dummy Treatment Arm A","Dummy Treatment Arm P","06/07/2022 11:18",170,70,"kg","cm",1.26,504
"278","XX01",11110,"Analyte01","SERUM","EVERY WEEK",2,173.564,5.564,4,172,5.8,"Analyte01","ug/mL","intravascular",35,65,"M","WHITE",1.2,"Hours","cells",0,"Analyte01","Cycle 1 Day 8",5.8,"copies/ug",0,"DOSE 2",339203,"Dummy Treatment Arm A","Dummy Treatment Arm P","06/07/2022 11:18",170,70,"kg","cm",1.18,504
"279","XX01",11110,"Analyte01","SERUM","EVERY WEEK",2,192.314,24.314,48,216,4.64,"Analyte01","ug/mL","intravascular",35,65,"M","WHITE",1.2,"Hours","cells",0,"Analyte01","Cycle 1 Day 9",4.64,"copies/ug",0,"DOSE 2",339203,"Dummy Treatment Arm A","Dummy Treatment Arm P","06/07/2022 11:18",170,70,"kg","cm",1.19,504
"280","XX01",11110,"Analyte01","SERUM","EVERY WEEK",2,265.934,97.934,192,360,1.09,"Analyte01","ug/mL","intravascular",35,65,"M","WHITE",1.2,"Hours","cells",0,"Analyte01","Cycle 1 Day 12",1.09,"copies/ug",0,"DOSE 2",339203,"Dummy Treatment Arm A","Dummy Treatment Arm P","06/07/2022 11:18",170,70,"kg","cm",1.25,504
"281","XX01",11110,"Analyte01","SERUM","EVERY WEEK",3,336.914,0.914,0,336,0.137,"Analyte01","ug/mL","intravascular",35,65,"M","WHITE",1.2,"Hours","cells",0,"Analyte01","Cycle 1 Day 15",0.137,"copies/ug",0,"DOSE 3",339203,"Dummy Treatment Arm A","Dummy Treatment Arm P","06/07/2022 11:18",170,70,"kg","cm",1.2,504
"282","XX01",11110,"Analyte01","SERUM","EVERY WEEK",3,337.634,1.634,0.5,336.5,11.3,"Analyte01","ug/mL","intravascular",35,65,"M","WHITE",0.5,"Hours","cells",0,"Analyte01","Cycle 1 Day 15",11.3,"copies/ug",0,"DOSE 3",339203,"Dummy Treatment Arm A","Dummy Treatment Arm P","13/07/2022 11:20",170,70,"kg","cm",0.52,504
"283","XX01",11110,"Analyte01","SERUM","EVERY WEEK",3,360.984,24.984,48,384,7.15,"Analyte01","ug/mL","intravascular",35,65,"M","WHITE",0.5,"Hours","cells",0,"Analyte01","Cycle 1 Day 16",7.15,"copies/ug",0,"DOSE 3",339203,"Dummy Treatment Arm A","Dummy Treatment Arm P","13/07/2022 11:20",170,70,"kg","cm",0.47,504
"284","XX01",11110,"Analyte01","SERUM","EVERY WEEK",4,504.914,0.914,0,504,0.181,"Analyte01","ug/mL","intravascular",35,65,"M","WHITE",0.5,"Hours","cells",0,"Analyte01","Cycle 2 Day 1",0.181,"copies/ug",0,"DOSE 4",339203,"Dummy Treatment Arm A","Dummy Treatment Arm P","13/07/2022 11:20",170,70,"kg","cm",0.51,504
"285","XX01",11110,"Analyte01","SERUM","EVERY WEEK",4,505.554,1.554,0.5,504.5,7.99,"Analyte01","ug/mL","intravascular",35,65,"M","WHITE",0.5,"Hours","cells",0,"Analyte01","Cycle 2 Day 1",7.99,"copies/ug",0,"DOSE 4",339203,"Dummy Treatment Arm A","Dummy Treatment Arm P","20/07/2022 10:35",170,70,"kg","cm",0.52,504
"286","XX01",11110,"Analyte01","SERUM","EVERY WEEK",4,528.784,24.784,48,552,4.86,"Analyte01","ug/mL","intravascular",35,65,"M","WHITE",0.5,"Hours","cells",0,"Analyte01","Cycle 2 Day 2",4.86,"copies/ug",0,"DOSE 4",339203,"Dummy Treatment Arm A","Dummy Treatment Arm P","20/07/2022 10:35",170,70,"kg","cm",0.48,504
"287","XX01",11110,"Analyte01","SERUM","EVERY WEEK",5,674.214,1.714,0,672.5,7.01,"Analyte01","ug/mL","intravascular",35,65,"M","WHITE",0.55,"Hours","cells",0,"Analyte01","Cycle 2 Day 8",7.01,"copies/ug",0,"DOSE 5",339203,"Dummy Treatment Arm A","Dummy Treatment Arm P","27/07/2022 11:16",170,70,"kg","cm",0.56,504
"288","XX01",11110,"Analyte01","SERUM","EVERY WEEK",5,697.354,24.854,47.5,720,4.7,"Analyte01","ug/mL","intravascular",35,65,"M","WHITE",0.55,"Hours","cells",0,"Analyte01","Cycle 2 Day 9",4.7,"copies/ug",0,"DOSE 5",339203,"Dummy Treatment Arm A","Dummy Treatment Arm P","27/07/2022 11:16",170,70,"kg","cm",0.58,504
"289","XX01",11110,"Analyte01","SERUM","EVERY WEEK",5,770.104,97.604,191.5,864,1.37,"Analyte01","ug/mL","intravascular",35,65,"M","WHITE",0.55,"Hours","cells",0,"Analyte01","Cycle 2 Day 12",1.37,"copies/ug",0,"DOSE 5",339203,"Dummy Treatment Arm A","Dummy Treatment Arm P","27/07/2022 11:16",170,70,"kg","cm",0.51,504
"290","XX01",11110,"Analyte01","SERUM","EVERY WEEK",6,840.814,0.814,0,840,0.329,"Analyte01","ug/mL","intravascular",35,65,"M","WHITE",0.55,"Hours","cells",0,"Analyte01","Cycle 2 Day 15",0.329,"copies/ug",0,"DOSE 6",339203,"Dummy Treatment Arm A","Dummy Treatment Arm P","27/07/2022 11:16",170,70,"kg","cm",0.64,504
"291","XX01",11110,"Analyte01","SERUM","EVERY WEEK",6,841.664,1.664,0.5,840.5,9.53,"Analyte01","ug/mL","intravascular",35,65,"M","WHITE",0.53,"Hours","cells",0,"Analyte01","Cycle 2 Day 15",9.53,"copies/ug",0,"DOSE 6",339203,"Dummy Treatment Arm A","Dummy Treatment Arm P","03/08/2022 12:47",170,70,"kg","cm",0.5,504
"292","XX01",11110,"Analyte01","SERUM","EVERY WEEK",7,1008.784,0.784,0,1008,0.524,"Analyte01","ug/mL","intravascular",35,65,"M","WHITE",0.53,"Hours","cells",0,"Analyte01","Cycle 3 Day 1",0.524,"copies/ug",0,"DOSE 7",339203,"Dummy Treatment Arm A","Dummy Treatment Arm P","03/08/2022 12:47",170,70,"kg","cm",0.6,504
"293","XX01",11110,"Analyte01","SERUM","EVERY WEEK",7,1009.754,1.754,0.5,1008.5,8.98,"Analyte01","ug/mL","intravascular",35,65,"M","WHITE",0.6,"Hours","cells",0,"Analyte01","Cycle 3 Day 1",8.98,"copies/ug",0,"DOSE 7",339203,"Dummy Treatment Arm A","Dummy Treatment Arm P","10/08/2022 10:26",170,70,"kg","cm",0.59,504
"294","XX01",11110,"Analyte01","SERUM","EVERY WEEK",8,1176.454,0.454,0,1176,0.413,"Analyte01","ug/mL","intravascular",35,65,"M","WHITE",0.6,"Hours","cells",0,"Analyte01","Cycle 3 Day 8",0.413,"copies/ug",0,"DOSE 8",339203,"Dummy Treatment Arm A","Dummy Treatment Arm P","10/08/2022 10:26",170,70,"kg","cm",0.6,504
"295","XX01",11110,"Analyte01","SERUM","EVERY WEEK",8,1177.564,1.564,0.5,1176.5,8.81,"Analyte01","ug/mL","intravascular",35,65,"M","WHITE",0.55,"Hours","cells",0,"Analyte01","Cycle 3 Day 8",8.81,"copies/ug",0,"DOSE 8",339203,"Dummy Treatment Arm A","Dummy Treatment Arm P","17/08/2022 11:05",170,70,"kg","cm",0.57,504
"296","XX01",11110,"Analyte01","SERUM","EVERY WEEK",9,1344.234,0.234,0,1344,0.311,"Analyte01","ug/mL","intravascular",35,65,"M","WHITE",0.55,"Hours","cells",0,"Analyte01","Cycle 3 Day 15",0.311,"copies/ug",0,"DOSE 9",339203,"Dummy Treatment Arm A","Dummy Treatment Arm P","17/08/2022 11:05",170,70,"kg","cm",0.52,504
"297","XX01",11111,"Analyte01","SERUM","EVERY WEEK",1,-0.25,-0.25,0,0,0,"Analyte01","ug/mL","intravascular",35,67,"F","WHITE",1.5,"Hours","cells",0,"Analyte01","Cycle 1 Day 1",0,"copies/ug",0,"DOSE 1",339203,"Dummy Treatment Arm A","Dummy Treatment Arm P","29/06/2022 11:10",162,66.9,"kg","cm",1.49,504
"298","XX01",11111,"Analyte01","SERUM","EVERY WEEK",1,1.5,1.5,0.5,0.5,15.1,"Analyte01","ug/mL","intravascular",35,67,"F","WHITE",1.5,"Hours","cells",0,"Analyte01","Cycle 1 Day 1",15.1,"copies/ug",0,"DOSE 1",339203,"Dummy Treatment Arm A","Dummy Treatment Arm P","29/06/2022 11:10",162,66.9,"kg","cm",1.48,504
"299","XX01",11111,"Analyte01","SERUM","EVERY WEEK",1,5.5,5.5,4,4,14.7,"Analyte01","ug/mL","intravascular",35,67,"F","WHITE",1.5,"Hours","cells",0,"Analyte01","Cycle 1 Day 1",14.7,"copies/ug",0,"DOSE 1",339203,"Dummy Treatment Arm A","Dummy Treatment Arm P","29/06/2022 11:10",162,66.9,"kg","cm",1.5,504
"300","XX01",11111,"Analyte01","SERUM","EVERY WEEK",1,8.17,8.17,8,8,14.2,"Analyte01","ug/mL","intravascular",35,67,"F","WHITE",1.5,"Hours","cells",0,"Analyte01","Cycle 1 Day 1",14.2,"copies/ug",0,"DOSE 1",339203,"Dummy Treatment Arm A","Dummy Treatment Arm P","29/06/2022 11:10",162,66.9,"kg","cm",1.53,504
"301","XX01",11111,"Analyte01","SERUM","EVERY WEEK",1,26.17,26.17,48,48,8.46,"Analyte01","ug/mL","intravascular",35,67,"F","WHITE",1.5,"Hours","cells",0,"Analyte01","Cycle 1 Day 2",8.46,"copies/ug",0,"DOSE 1",339203,"Dummy Treatment Arm A","Dummy Treatment Arm P","29/06/2022 11:10",162,66.9,"kg","cm",1.5,504
"302","XX01",11111,"Analyte01","SERUM","EVERY WEEK",1,72.5,72.5,144,144,4.58,"Analyte01","ug/mL","intravascular",35,67,"F","WHITE",1.5,"Hours","cells",0,"Analyte01","Cycle 1 Day 4",4.58,"copies/ug",0,"DOSE 1",339203,"Dummy Treatment Arm A","Dummy Treatment Arm P","29/06/2022 11:10",162,66.9,"kg","cm",1.49,504
"303","XX01",11111,"Analyte01","SERUM","EVERY WEEK",2,168.25,0.25,0,168,0.737,"Analyte01","ug/mL","intravascular",35,67,"F","WHITE",1.5,"Hours","cells",0,"Analyte01","Cycle 1 Day 8",0.737,"copies/ug",0,"DOSE 2",339203,"Dummy Treatment Arm A","Dummy Treatment Arm P","29/06/2022 11:10",162,66.9,"kg","cm",1.53,504
"304","XX01",11111,"Analyte01","SERUM","EVERY WEEK",2,169.5,1.5,0.5,168.5,17,"Analyte01","ug/mL","intravascular",35,67,"F","WHITE",1,"Hours","cells",0,"Analyte01","Cycle 1 Day 8",17,"copies/ug",0,"DOSE 2",339203,"Dummy Treatment Arm A","Dummy Treatment Arm P","06/07/2022 13:20",162,66.9,"kg","cm",0.96,504
"305","XX01",11111,"Analyte01","SERUM","EVERY WEEK",2,173.5,5.5,4,172,13.4,"Analyte01","ug/mL","intravascular",35,67,"F","WHITE",1,"Hours","cells",0,"Analyte01","Cycle 1 Day 8",13.4,"copies/ug",0,"DOSE 2",339203,"Dummy Treatment Arm A","Dummy Treatment Arm P","06/07/2022 13:20",162,66.9,"kg","cm",1.04,504
"306","XX01",11111,"Analyte01","SERUM","EVERY WEEK",2,192.83,24.83,48,216,12.5,"Analyte01","ug/mL","intravascular",35,67,"F","WHITE",1,"Hours","cells",0,"Analyte01","Cycle 1 Day 9",12.5,"copies/ug",0,"DOSE 2",339203,"Dummy Treatment Arm A","Dummy Treatment Arm P","06/07/2022 13:20",162,66.9,"kg","cm",0.99,504
"307","XX01",11111,"Analyte01","SERUM","EVERY WEEK",2,264.17,96.17,192,360,2.73,"Analyte01","ug/mL","intravascular",35,67,"F","WHITE",1,"Hours","cells",0,"Analyte01","Cycle 1 Day 12",2.73,"copies/ug",0,"DOSE 2",339203,"Dummy Treatment Arm A","Dummy Treatment Arm P","06/07/2022 13:20",162,66.9,"kg","cm",0.97,504
"308","XX01",11111,"Analyte01","SERUM","EVERY WEEK",3,336.33,0.33,0,336,0.545,"Analyte01","ug/mL","intravascular",35,67,"F","WHITE",1,"Hours","cells",0,"Analyte01","Cycle 1 Day 15",0.545,"copies/ug",0,"DOSE 3",339203,"Dummy Treatment Arm A","Dummy Treatment Arm P","06/07/2022 13:20",162,66.9,"kg","cm",0.99,504
"309","XX01",11111,"Analyte01","SERUM","EVERY WEEK",3,337.5,1.5,0.5,336.5,13.6,"Analyte01","ug/mL","intravascular",35,67,"F","WHITE",0.5,"Hours","cells",0,"Analyte01","Cycle 1 Day 15",13.6,"copies/ug",0,"DOSE 3",339203,"Dummy Treatment Arm A","Dummy Treatment Arm P","13/07/2022 12:35",162,66.9,"kg","cm",0.49,504
"310","XX01",11111,"Analyte01","SERUM","EVERY WEEK",3,359.58,23.58,48,384,10.8,"Analyte01","ug/mL","intravascular",35,67,"F","WHITE",0.5,"Hours","cells",0,"Analyte01","Cycle 1 Day 16",10.8,"copies/ug",0,"DOSE 3",339203,"Dummy Treatment Arm A","Dummy Treatment Arm P","13/07/2022 12:35",162,66.9,"kg","cm",0.45,504
"311","XX01",11111,"Analyte01","SERUM","EVERY WEEK",4,504.25,0.25,0,504,0.647,"Analyte01","ug/mL","intravascular",35,67,"F","WHITE",0.5,"Hours","cells",0,"Analyte01","Cycle 2 Day 1",0.647,"copies/ug",0,"DOSE 4",339203,"Dummy Treatment Arm A","Dummy Treatment Arm P","13/07/2022 12:35",162,66.9,"kg","cm",0.46,504
"312","XX01",11111,"Analyte01","SERUM","EVERY WEEK",4,505.5,1.5,0.5,504.5,16.6,"Analyte01","ug/mL","intravascular",35,67,"F","WHITE",0.5,"Hours","cells",0,"Analyte01","Cycle 2 Day 1",16.6,"copies/ug",0,"DOSE 4",339203,"Dummy Treatment Arm A","Dummy Treatment Arm P","20/07/2022 10:25",162,66.9,"kg","cm",0.47,504
"313","XX01",11111,"Analyte01","SERUM","EVERY WEEK",4,531.08,27.08,48,552,9.8,"Analyte01","ug/mL","intravascular",35,67,"F","WHITE",0.5,"Hours","cells",0,"Analyte01","Cycle 2 Day 2",9.8,"copies/ug",0,"DOSE 4",339203,"Dummy Treatment Arm A","Dummy Treatment Arm P","20/07/2022 10:25",162,66.9,"kg","cm",0.54,504
"314","XX01",11111,"Analyte01","SERUM","EVERY WEEK",5,672.75,0.75,0,672,1.11,"Analyte01","ug/mL","intravascular",35,67,"F","WHITE",0.5,"Hours","cells",0,"Analyte01","Cycle 2 Day 8",1.11,"copies/ug",0,"DOSE 5",339203,"Dummy Treatment Arm A","Dummy Treatment Arm P","20/07/2022 10:25",162,66.9,"kg","cm",0.54,504
"315","XX01",11111,"Analyte01","SERUM","EVERY WEEK",5,673.5,1.5,0.5,672.5,11.7,"Analyte01","ug/mL","intravascular",35,67,"F","WHITE",0.5,"Hours","cells",0,"Analyte01","Cycle 2 Day 8",11.7,"copies/ug",0,"DOSE 5",339203,"Dummy Treatment Arm A","Dummy Treatment Arm P","27/07/2022 14:35",162,66.9,"kg","cm",0.51,504
"316","XX01",11111,"Analyte01","SERUM","EVERY WEEK",5,695.67,23.67,48,720,7.57,"Analyte01","ug/mL","intravascular",35,67,"F","WHITE",0.5,"Hours","cells",0,"Analyte01","Cycle 2 Day 9",7.57,"copies/ug",0,"DOSE 5",339203,"Dummy Treatment Arm A","Dummy Treatment Arm P","27/07/2022 14:35",162,66.9,"kg","cm",0.49,504
"317","XX01",11111,"Analyte01","SERUM","EVERY WEEK",6,840.92,0.92,0,840,1.18,"Analyte01","ug/mL","intravascular",35,67,"F","WHITE",0.5,"Hours","cells",0,"Analyte01","Cycle 2 Day 15",1.18,"copies/ug",0,"DOSE 6",339203,"Dummy Treatment Arm A","Dummy Treatment Arm P","27/07/2022 14:35",162,66.9,"kg","cm",0.53,504
"318","XX01",11111,"Analyte01","SERUM","EVERY WEEK",6,841.5,1.5,0.5,840.5,12.4,"Analyte01","ug/mL","intravascular",35,67,"F","WHITE",0.5,"Hours","cells",0,"Analyte01","Cycle 2 Day 15",12.4,"copies/ug",0,"DOSE 6",339203,"Dummy Treatment Arm A","Dummy Treatment Arm P","03/08/2022 15:55",162,66.9,"kg","cm",0.55,504
"319","XX01",11111,"Analyte01","SERUM","EVERY WEEK",7,1008.83,0.83,0,1008,1.18,"Analyte01","ug/mL","intravascular",35,67,"F","WHITE",0.5,"Hours","cells",0,"Analyte01","Cycle 3 Day 1",1.18,"copies/ug",0,"DOSE 7",339203,"Dummy Treatment Arm A","Dummy Treatment Arm P","03/08/2022 15:55",162,66.9,"kg","cm",0.54,504
"320","XX01",11111,"Analyte01","SERUM","EVERY WEEK",7,1009.5,1.5,0.5,1008.5,13.1,"Analyte01","ug/mL","intravascular",35,67,"F","WHITE",0.5,"Hours","cells",0,"Analyte01","Cycle 3 Day 1",13.1,"copies/ug",0,"DOSE 7",339203,"Dummy Treatment Arm A","Dummy Treatment Arm P","10/08/2022 13:25",162,66.9,"kg","cm",0.48,504
"321","XX01",11111,"Analyte01","SERUM","EVERY WEEK",8,1176.92,0.92,0,1176,13.7,"Analyte01","ug/mL","intravascular",35,67,"F","WHITE",0.5,"Hours","cells",0,"Analyte01","Cycle 3 Day 8",13.7,"copies/ug",0,"DOSE 8",339203,"Dummy Treatment Arm A","Dummy Treatment Arm P","10/08/2022 13:25",162,66.9,"kg","cm",0.51,504
"322","XX01",11111,"Analyte01","SERUM","EVERY WEEK",8,1177.5,1.5,0.5,1176.5,1.18,"Analyte01","ug/mL","intravascular",35,67,"F","WHITE",0.5,"Hours","cells",0,"Analyte01","Cycle 3 Day 8",1.18,"copies/ug",0,"DOSE 8",339203,"Dummy Treatment Arm A","Dummy Treatment Arm P","17/08/2022 16:45",162,66.9,"kg","cm",0.44,504
"323","XX01",11111,"Analyte01","SERUM","EVERY WEEK",9,1344.92,0.92,0,1344,1.15,"Analyte01","ug/mL","intravascular",35,67,"F","WHITE",0.5,"Hours","cells",0,"Analyte01","Cycle 3 Day 15",1.15,"copies/ug",0,"DOSE 9",339203,"Dummy Treatment Arm A","Dummy Treatment Arm P","17/08/2022 16:45",162,66.9,"kg","cm",0.46,504
"324","XX01",11111,"Analyte01","SERUM","EVERY WEEK",9,1345.58,1.58,0.5,1344.5,10.3,"Analyte01","ug/mL","intravascular",35,67,"F","WHITE",0.5,"Hours","cells",0,"Analyte01","Cycle 3 Day 15",10.3,"copies/ug",0,"DOSE 9",339203,"Dummy Treatment Arm A","Dummy Treatment Arm P","24/08/2022 15:30",162,66.9,"kg","cm",0.45,504
"325","XX01",11112,"Analyte01","SERUM","EVERY WEEK",1,-0.32,-0.32,0,0,0,"Analyte01","ug/mL","intravascular",35,42,"M","WHITE",1.5,"Hours","cells",0,"Analyte01","Cycle 1 Day 1",0,"copies/ug",0,"DOSE 1",339203,"Dummy Treatment Arm A","Dummy Treatment Arm P","26/07/2022 12:37",177,92.2,"kg","cm",1.47,504
"326","XX01",11112,"Analyte01","SERUM","EVERY WEEK",1,1.55,1.55,0.5,0.5,11.8,"Analyte01","ug/mL","intravascular",35,42,"M","WHITE",1.5,"Hours","cells",0,"Analyte01","Cycle 1 Day 1",11.8,"copies/ug",0,"DOSE 1",339203,"Dummy Treatment Arm A","Dummy Treatment Arm P","26/07/2022 12:37",177,92.2,"kg","cm",1.54,504
"327","XX01",11112,"Analyte01","SERUM","EVERY WEEK",1,5.48,5.48,4,4,10.1,"Analyte01","ug/mL","intravascular",35,42,"M","WHITE",1.5,"Hours","cells",0,"Analyte01","Cycle 1 Day 1",10.1,"copies/ug",0,"DOSE 1",339203,"Dummy Treatment Arm A","Dummy Treatment Arm P","26/07/2022 12:37",177,92.2,"kg","cm",1.5,504
"328","XX01",11112,"Analyte01","SERUM","EVERY WEEK",1,10.22,10.22,8,8,10.8,"Analyte01","ug/mL","intravascular",35,42,"M","WHITE",1.5,"Hours","cells",0,"Analyte01","Cycle 1 Day 1",10.8,"copies/ug",0,"DOSE 1",339203,"Dummy Treatment Arm A","Dummy Treatment Arm P","26/07/2022 12:37",177,92.2,"kg","cm",1.46,504
"329","XX01",11112,"Analyte01","SERUM","EVERY WEEK",1,26.53,26.53,48,48,7.79,"Analyte01","ug/mL","intravascular",35,42,"M","WHITE",1.5,"Hours","cells",0,"Analyte01","Cycle 1 Day 2",7.79,"copies/ug",0,"DOSE 1",339203,"Dummy Treatment Arm A","Dummy Treatment Arm P","26/07/2022 12:37",177,92.2,"kg","cm",1.45,504
"330","XX01",11112,"Analyte01","SERUM","EVERY WEEK",1,68.65,68.65,144,144,2.73,"Analyte01","ug/mL","intravascular",35,42,"M","WHITE",1.5,"Hours","cells",0,"Analyte01","Cycle 1 Day 4",2.73,"copies/ug",0,"DOSE 1",339203,"Dummy Treatment Arm A","Dummy Treatment Arm P","26/07/2022 12:37",177,92.2,"kg","cm",1.5,504
"331","XX01",11112,"Analyte01","SERUM","EVERY WEEK",2,166.77,-1.23,0,168,0.275,"Analyte01","ug/mL","intravascular",35,42,"M","WHITE",1.5,"Hours","cells",0,"Analyte01","Cycle 1 Day 8",0.275,"copies/ug",0,"DOSE 2",339203,"Dummy Treatment Arm A","Dummy Treatment Arm P","26/07/2022 12:37",177,92.2,"kg","cm",1.48,504
"332","XX01",11112,"Analyte01","SERUM","EVERY WEEK",2,169.67,1.67,0.5,168.5,13,"Analyte01","ug/mL","intravascular",35,42,"M","WHITE",1.48,"Hours","cells",0,"Analyte01","Cycle 1 Day 8",13,"copies/ug",0,"DOSE 2",339203,"Dummy Treatment Arm A","Dummy Treatment Arm P","02/08/2022 13:14",177,92.2,"kg","cm",1.47,504
"333","XX01",11112,"Analyte01","SERUM","EVERY WEEK",2,172.72,4.72,4,172,10.5,"Analyte01","ug/mL","intravascular",35,42,"M","WHITE",1.48,"Hours","cells",0,"Analyte01","Cycle 1 Day 8",10.5,"copies/ug",0,"DOSE 2",339203,"Dummy Treatment Arm A","Dummy Treatment Arm P","02/08/2022 13:14",177,92.2,"kg","cm",1.41,504
"334","XX01",11112,"Analyte01","SERUM","EVERY WEEK",2,191.67,23.67,48,216,8.15,"Analyte01","ug/mL","intravascular",35,42,"M","WHITE",1.48,"Hours","cells",0,"Analyte01","Cycle 1 Day 9",8.15,"copies/ug",0,"DOSE 2",339203,"Dummy Treatment Arm A","Dummy Treatment Arm P","02/08/2022 13:14",177,92.2,"kg","cm",1.43,504
"335","XX01",11112,"Analyte01","SERUM","EVERY WEEK",2,237.08,69.08,192,360,2.09,"Analyte01","ug/mL","intravascular",35,42,"M","WHITE",1.48,"Hours","cells",0,"Analyte01","Cycle 1 Day 12",2.09,"copies/ug",0,"DOSE 2",339203,"Dummy Treatment Arm A","Dummy Treatment Arm P","02/08/2022 13:14",177,92.2,"kg","cm",1.49,504
"336","XX01",11112,"Analyte01","SERUM","EVERY WEEK",3,334.73,-1.27,0,336,0.0441,"Analyte01","ug/mL","intravascular",35,42,"M","WHITE",1.48,"Hours","cells",0,"Analyte01","Cycle 1 Day 15",0.0441,"copies/ug",0,"DOSE 3",339203,"Dummy Treatment Arm A","Dummy Treatment Arm P","02/08/2022 13:14",177,92.2,"kg","cm",1.43,504
"337","XX01",11112,"Analyte01","SERUM","EVERY WEEK",3,337.72,1.72,0.5,336.5,9.21,"Analyte01","ug/mL","intravascular",35,42,"M","WHITE",1.48,"Hours","cells",0,"Analyte01","Cycle 1 Day 15",9.21,"copies/ug",0,"DOSE 3",339203,"Dummy Treatment Arm A","Dummy Treatment Arm P","09/08/2022 11:54",177,92.2,"kg","cm",1.45,504
"338","XX01",11112,"Analyte01","SERUM","EVERY WEEK",4,504.3,0.3,0,504,0.108,"Analyte01","ug/mL","intravascular",35,42,"M","WHITE",1.48,"Hours","cells",0,"Analyte01","Cycle 2 Day 1",0.108,"copies/ug",0,"DOSE 4",339203,"Dummy Treatment Arm A","Dummy Treatment Arm P","09/08/2022 11:54",177,92.2,"kg","cm",1.5,504
"339","XX01",11112,"Analyte01","SERUM","EVERY 3 WEEKS",4,505.53,1.53,0.5,504.5,9.45,"Analyte01","ug/mL","intravascular",35,42,"M","WHITE",1,"Hours","cells",0,"Analyte01","Cycle 2 Day 1",9.45,"copies/ug",0,"DOSE 4",339203,"Dummy Treatment Arm A","Dummy Treatment Arm P","16/08/2022 11:28",177,92.2,"kg","cm",0.97,504
"340","XX01",11112,"Analyte01","SERUM","EVERY 3 WEEKS",4,533.58,29.58,48,552,5.78,"Analyte01","ug/mL","intravascular",35,42,"M","WHITE",1,"Hours","cells",0,"Analyte01","Cycle 2 Day 2",5.78,"copies/ug",0,"DOSE 4",339203,"Dummy Treatment Arm A","Dummy Treatment Arm P","16/08/2022 11:28",177,92.2,"kg","cm",1.03,504
"341","XX01",11112,"Analyte01","SERUM","EVERY 3 WEEKS",5,670.22,-1.78,0,672,0.36,"Analyte01","ug/mL","intravascular",35,42,"M","WHITE",1,"Hours","cells",0,"Analyte01","Cycle 2 Day 8",0.36,"copies/ug",0,"DOSE 5",339203,"Dummy Treatment Arm A","Dummy Treatment Arm P","16/08/2022 11:28",177,92.2,"kg","cm",0.98,504
"342","XX01",11112,"Analyte01","SERUM","EVERY WEEK",5,673.65,1.65,0.5,672.5,9.29,"Analyte01","ug/mL","intravascular",35,42,"M","WHITE",0.72,"Hours","cells",0,"Analyte01","Cycle 2 Day 8",9.29,"copies/ug",0,"DOSE 5",339203,"Dummy Treatment Arm A","Dummy Treatment Arm P","23/08/2022 11:13",177,92.2,"kg","cm",0.77,504
"343","XX01",11112,"Analyte01","SERUM","EVERY WEEK",5,696.38,24.38,48,720,6.26,"Analyte01","ug/mL","intravascular",35,42,"M","WHITE",0.72,"Hours","cells",0,"Analyte01","Cycle 2 Day 9",6.26,"copies/ug",0,"DOSE 5",339203,"Dummy Treatment Arm A","Dummy Treatment Arm P","23/08/2022 11:13",177,92.2,"kg","cm",0.81,504
"344","XX01",11112,"Analyte01","SERUM","EVERY WEEK",5,742.03,70.03,192,864,2.88,"Analyte01","ug/mL","intravascular",35,42,"M","WHITE",0.72,"Hours","cells",0,"Analyte01","Cycle 2 Day 12",2.88,"copies/ug",0,"DOSE 5",339203,"Dummy Treatment Arm A","Dummy Treatment Arm P","23/08/2022 11:13",177,92.2,"kg","cm",0.67,504
"345","XX01",11201,"Analyte01","SERUM","EVERY WEEK",1,-0.25,-0.25,0,0,0,"Analyte01","ug/mL","intravascular",50,56,"M","WHITE",1.5,"Hours","cells",0,"Analyte01","Cycle 1 Day 1",0,"copies/ug",0,"DOSE 1",339203,"Dummy Treatment Arm A","Dummy Treatment Arm P","05/05/2022 11:30",185,83,"kg","cm",1.47,504
"346","XX01",11201,"Analyte01","SERUM","EVERY WEEK",1,1.5,1.5,0.5,0.5,13.8,"Analyte01","ug/mL","intravascular",50,56,"M","WHITE",1.5,"Hours","cells",0,"Analyte01","Cycle 1 Day 1",13.8,"copies/ug",0,"DOSE 1",339203,"Dummy Treatment Arm A","Dummy Treatment Arm P","05/05/2022 11:30",185,83,"kg","cm",1.51,504
"347","XX01",11201,"Analyte01","SERUM","EVERY WEEK",1,5.5,5.5,4,4,12.8,"Analyte01","ug/mL","intravascular",50,56,"M","WHITE",1.5,"Hours","cells",0,"Analyte01","Cycle 1 Day 1",12.8,"copies/ug",0,"DOSE 1",339203,"Dummy Treatment Arm A","Dummy Treatment Arm P","05/05/2022 11:30",185,83,"kg","cm",1.52,504
"348","XX01",11201,"Analyte01","SERUM","EVERY WEEK",1,10,10,8,8,11.3,"Analyte01","ug/mL","intravascular",50,56,"M","WHITE",1.5,"Hours","cells",0,"Analyte01","Cycle 1 Day 1",11.3,"copies/ug",0,"DOSE 1",339203,"Dummy Treatment Arm A","Dummy Treatment Arm P","05/05/2022 11:30",185,83,"kg","cm",1.47,504
"349","XX01",11201,"Analyte01","SERUM","EVERY WEEK",1,24.25,24.25,48,48,8.12,"Analyte01","ug/mL","intravascular",50,56,"M","WHITE",1.5,"Hours","cells",0,"Analyte01","Cycle 1 Day 2",8.12,"copies/ug",0,"DOSE 1",339203,"Dummy Treatment Arm A","Dummy Treatment Arm P","05/05/2022 11:30",185,83,"kg","cm",1.46,504
"350","XX01",11201,"Analyte01","SERUM","EVERY WEEK",1,73.08,73.08,144,144,4.22,"Analyte01","ug/mL","intravascular",50,56,"M","WHITE",1.5,"Hours","cells",0,"Analyte01","Cycle 1 Day 4",4.22,"copies/ug",0,"DOSE 1",339203,"Dummy Treatment Arm A","Dummy Treatment Arm P","05/05/2022 11:30",185,83,"kg","cm",1.51,504
"351","XX01",11201,"Analyte01","SERUM","EVERY WEEK",2,168.33,0.33,0,168,0.735,"Analyte01","ug/mL","intravascular",50,56,"M","WHITE",1.5,"Hours","cells",0,"Analyte01","Cycle 1 Day 8",0.735,"copies/ug",0,"DOSE 2",339203,"Dummy Treatment Arm A","Dummy Treatment Arm P","05/05/2022 11:30",185,83,"kg","cm",1.48,504
"352","XX01",11201,"Analyte01","SERUM","EVERY WEEK",2,172.5,4.5,4,172,10.7,"Analyte01","ug/mL","intravascular",50,56,"M","WHITE",1,"Hours","cells",0,"Analyte01","Cycle 1 Day 8",10.7,"copies/ug",0,"DOSE 2",339203,"Dummy Treatment Arm A","Dummy Treatment Arm P","12/05/2022 13:10",185,83,"kg","cm",1.02,504
"353","XX01",11201,"Analyte01","SERUM","EVERY WEEK",2,192.83,24.83,48,216,8.7,"Analyte01","ug/mL","intravascular",50,56,"M","WHITE",1,"Hours","cells",0,"Analyte01","Cycle 1 Day 9",8.7,"copies/ug",0,"DOSE 2",339203,"Dummy Treatment Arm A","Dummy Treatment Arm P","12/05/2022 13:10",185,83,"kg","cm",1.04,504
"354","XX01",11201,"Analyte01","SERUM","EVERY WEEK",2,263.67,95.67,192,360,2.52,"Analyte01","ug/mL","intravascular",50,56,"M","WHITE",1,"Hours","cells",0,"Analyte01","Cycle 1 Day 12",2.52,"copies/ug",0,"DOSE 2",339203,"Dummy Treatment Arm A","Dummy Treatment Arm P","12/05/2022 13:10",185,83,"kg","cm",1.01,504
"355","XX01",11201,"Analyte01","SERUM","EVERY WEEK",3,504.83,0.83,0,504,0.002,"Analyte01","ug/mL","intravascular",50,56,"M","WHITE",1,"Hours","cells",0,"Analyte01","Cycle 2 Day 1",0.002,"copies/ug",0,"DOSE 3",339203,"Dummy Treatment Arm A","Dummy Treatment Arm P","12/05/2022 13:10",185,83,"kg","cm",0.96,504
"356","XX01",11201,"Analyte01","SERUM","EVERY WEEK",3,505.5,1.5,0.5,504.5,11.8,"Analyte01","ug/mL","intravascular",50,56,"M","WHITE",0.5,"Hours","cells",0,"Analyte01","Cycle 2 Day 1",11.8,"copies/ug",0,"DOSE 3",339203,"Dummy Treatment Arm A","Dummy Treatment Arm P","26/05/2022 12:50",185,83,"kg","cm",0.52,504
"357","XX01",11201,"Analyte01","SERUM","EVERY WEEK",3,531.08,27.08,48,552,7.95,"Analyte01","ug/mL","intravascular",50,56,"M","WHITE",0.5,"Hours","cells",0,"Analyte01","Cycle 2 Day 2",7.95,"copies/ug",0,"DOSE 3",339203,"Dummy Treatment Arm A","Dummy Treatment Arm P","26/05/2022 12:50",185,83,"kg","cm",0.51,504
"358","XX01",11201,"Analyte01","SERUM","EVERY WEEK",4,672.75,0.75,0,672,0.793,"Analyte01","ug/mL","intravascular",50,56,"M","WHITE",0.5,"Hours","cells",0,"Analyte01","Cycle 2 Day 8",0.793,"copies/ug",0,"DOSE 4",339203,"Dummy Treatment Arm A","Dummy Treatment Arm P","26/05/2022 12:50",185,83,"kg","cm",0.51,504
"359","XX01",11201,"Analyte01","SERUM","EVERY WEEK",4,673.5,1.5,0.5,672.5,15.5,"Analyte01","ug/mL","intravascular",50,56,"M","WHITE",0.5,"Hours","cells",0,"Analyte01","Cycle 2 Day 8",15.5,"copies/ug",0,"DOSE 4",339203,"Dummy Treatment Arm A","Dummy Treatment Arm P","02/06/2022 14:00",185,83,"kg","cm",0.55,504
"360","XX01",11201,"Analyte01","SERUM","EVERY WEEK",4,694.33,22.33,48,720,9.43,"Analyte01","ug/mL","intravascular",50,56,"M","WHITE",0.5,"Hours","cells",0,"Analyte01","Cycle 2 Day 9",9.43,"copies/ug",0,"DOSE 4",339203,"Dummy Treatment Arm A","Dummy Treatment Arm P","02/06/2022 14:00",185,83,"kg","cm",0.51,504
"361","XX01",11201,"Analyte01","SERUM","EVERY WEEK",4,772.75,100.75,192,864,2.7,"Analyte01","ug/mL","intravascular",50,56,"M","WHITE",0.5,"Hours","cells",0,"Analyte01","Cycle 2 Day 12",2.7,"copies/ug",0,"DOSE 4",339203,"Dummy Treatment Arm A","Dummy Treatment Arm P","02/06/2022 14:00",185,83,"kg","cm",0.48,504
"362","XX01",11201,"Analyte01","SERUM","EVERY WEEK",5,840.67,0.67,0,840,0.898,"Analyte01","ug/mL","intravascular",50,56,"M","WHITE",0.5,"Hours","cells",0,"Analyte01","Cycle 2 Day 15",0.898,"copies/ug",0,"DOSE 5",339203,"Dummy Treatment Arm A","Dummy Treatment Arm P","02/06/2022 14:00",185,83,"kg","cm",0.5,504
"363","XX01",11201,"Analyte01","SERUM","EVERY 3 WEEKS",5,841.5,1.5,0.5,840.5,15.2,"Analyte01","ug/mL","intravascular",50,56,"M","WHITE",0.5,"Hours","cells",0,"Analyte01","Cycle 2 Day 15",15.2,"copies/ug",0,"DOSE 5",339203,"Dummy Treatment Arm A","Dummy Treatment Arm P","09/06/2022 14:50",185,83,"kg","cm",0.56,504
"364","XX01",11201,"Analyte01","SERUM","EVERY 3 WEEKS",5,1200,360,NA,NA,0.0097,"Analyte01","ug/mL","intravascular",50,56,"M","WHITE",0.5,"Hours","cells",0,"Analyte01","Discontinuation Visit",0.0097,"copies/ug",0,"DOSE 5",339203,"Dummy Treatment Arm A","Dummy Treatment Arm P","09/06/2022 14:50",185,83,"kg","cm",0.47,504
"365","XX01",11202,"Analyte01","SERUM","EVERY 3 WEEKS",1,-1.663333333,-1.663333333,0,0,0,"Analyte01","ug/mL","intravascular",35,65,"M","WHITE",1.47,"Hours","cells",0,"Analyte01","Cycle 1 Day 1",0,"copies/ug",0,"DOSE 1",339203,"Dummy Treatment Arm A","Dummy Treatment Arm P","31/05/2022 13:36",185,78.9,"kg","cm",1.49,504
"366","XX01",11202,"Analyte01","SERUM","EVERY 3 WEEKS",1,1.716666667,1.716666667,0.5,0.5,9.38,"Analyte01","ug/mL","intravascular",35,65,"M","WHITE",1.47,"Hours","cells",0,"Analyte01","Cycle 1 Day 1",9.38,"copies/ug",0,"DOSE 1",339203,"Dummy Treatment Arm A","Dummy Treatment Arm P","31/05/2022 13:36",185,78.9,"kg","cm",1.46,504
"367","XX01",11202,"Analyte01","SERUM","EVERY 3 WEEKS",1,5.446666667,5.446666667,4,4,8.99,"Analyte01","ug/mL","intravascular",35,65,"M","WHITE",1.47,"Hours","cells",0,"Analyte01","Cycle 1 Day 1",8.99,"copies/ug",0,"DOSE 1",339203,"Dummy Treatment Arm A","Dummy Treatment Arm P","31/05/2022 13:36",185,78.9,"kg","cm",1.46,504
"368","XX01",11202,"Analyte01","SERUM","EVERY 3 WEEKS",1,9.146666667,9.146666667,8,8,8.04,"Analyte01","ug/mL","intravascular",35,65,"M","WHITE",1.47,"Hours","cells",0,"Analyte01","Cycle 1 Day 1",8.04,"copies/ug",0,"DOSE 1",339203,"Dummy Treatment Arm A","Dummy Treatment Arm P","31/05/2022 13:36",185,78.9,"kg","cm",1.54,504
"369","XX01",11202,"Analyte01","SERUM","EVERY 3 WEEKS",1,24.04666667,24.04666667,48,48,6.04,"Analyte01","ug/mL","intravascular",35,65,"M","WHITE",1.47,"Hours","cells",0,"Analyte01","Cycle 1 Day 2",6.04,"copies/ug",0,"DOSE 1",339203,"Dummy Treatment Arm A","Dummy Treatment Arm P","31/05/2022 13:36",185,78.9,"kg","cm",1.51,504
"370","XX01",11202,"Analyte01","SERUM","EVERY 3 WEEKS",1,78.36666667,78.36666667,144,144,2.11,"Analyte01","ug/mL","intravascular",35,65,"M","WHITE",1.47,"Hours","cells",0,"Analyte01","Cycle 1 Day 4",2.11,"copies/ug",0,"DOSE 1",339203,"Dummy Treatment Arm A","Dummy Treatment Arm P","31/05/2022 13:36",185,78.9,"kg","cm",1.47,504
"371","XX01",11202,"Analyte01","SERUM","EVERY 3 WEEKS",1,167.6866667,167.6866667,336,336,0.188,"Analyte01","ug/mL","intravascular",35,65,"M","WHITE",1.47,"Hours","cells",0,"Analyte01","Cycle 1 Day 8",0.188,"copies/ug",0,"DOSE 1",339203,"Dummy Treatment Arm A","Dummy Treatment Arm P","31/05/2022 13:36",185,78.9,"kg","cm",1.47,504
"372","XX01",11202,"Analyte01","SERUM","EVERY 3 WEEKS",1,194.0866667,194.0866667,216,216,0.0788,"Analyte01","ug/mL","intravascular",35,65,"M","WHITE",1.47,"Hours","cells",0,"Analyte01","Cycle 1 Day 9",0.0788,"copies/ug",0,"DOSE 1",339203,"Dummy Treatment Arm A","Dummy Treatment Arm P","31/05/2022 13:36",185,78.9,"kg","cm",1.44,504
"373","XX01",11202,"Analyte01","SERUM","EVERY 3 WEEKS",1,263.5866667,263.5866667,360,360,0.011,"Analyte01","ug/mL","intravascular",35,65,"M","WHITE",1.47,"Hours","cells",0,"Analyte01","Cycle 1 Day 12",0.011,"copies/ug",0,"DOSE 1",339203,"Dummy Treatment Arm A","Dummy Treatment Arm P","31/05/2022 13:36",185,78.9,"kg","cm",1.47,504
"374","XX01",11202,"Analyte01","SERUM","EVERY 3 WEEKS",1,335.9466667,335.9466667,672,672,0.003,"Analyte01","ug/mL","intravascular",35,65,"M","WHITE",1.47,"Hours","cells",0,"Analyte01","Cycle 1 Day 15",0.003,"copies/ug",0,"DOSE 1",339203,"Dummy Treatment Arm A","Dummy Treatment Arm P","31/05/2022 13:36",185,78.9,"kg","cm",1.47,504
"375","XX01",11202,"Analyte01","SERUM","EVERY 3 WEEKS",2,502.3866667,-1.613333333,0,504,0,"Analyte01","ug/mL","intravascular",35,65,"M","WHITE",1.47,"Hours","cells",0,"Analyte01","Cycle 2 Day 1",0,"copies/ug",0,"DOSE 2",339203,"Dummy Treatment Arm A","Dummy Treatment Arm P","31/05/2022 13:36",185,78.9,"kg","cm",1.47,504
"376","XX01",11202,"Analyte01","SERUM","EVERY 3 WEEKS",2,505.8166667,1.816666667,0.5,504.5,8.42,"Analyte01","ug/mL","intravascular",35,65,"M","WHITE",1.58,"Hours","cells",0,"Analyte01","Cycle 2 Day 1",8.42,"copies/ug",0,"DOSE 2",339203,"Dummy Treatment Arm A","Dummy Treatment Arm P","21/06/2022 13:49",185,78.9,"kg","cm",1.56,504
"377","XX01",11202,"Analyte01","SERUM","EVERY 3 WEEKS",2,670.4966667,166.4966667,336,840,0.154,"Analyte01","ug/mL","intravascular",35,65,"M","WHITE",1.58,"Hours","cells",0,"Analyte01","Cycle 2 Day 8",0.154,"copies/ug",0,"DOSE 2",339203,"Dummy Treatment Arm A","Dummy Treatment Arm P","21/06/2022 13:49",185,78.9,"kg","cm",1.55,504
"378","XX01",11202,"Analyte01","SERUM","EVERY 3 WEEKS",2,693.2166667,189.2166667,384,888,0.0795,"Analyte01","ug/mL","intravascular",35,65,"M","WHITE",1.58,"Hours","cells",0,"Analyte01","Cycle 2 Day 9",0.0795,"copies/ug",0,"DOSE 2",339203,"Dummy Treatment Arm A","Dummy Treatment Arm P","21/06/2022 13:49",185,78.9,"kg","cm",1.62,504
"379","XX01",11202,"Analyte01","SERUM","EVERY 3 WEEKS",2,741.5966667,237.5966667,528,1032,0.0231,"Analyte01","ug/mL","intravascular",35,65,"M","WHITE",1.58,"Hours","cells",0,"Analyte01","Cycle 2 Day 12",0.0231,"copies/ug",0,"DOSE 2",339203,"Dummy Treatment Arm A","Dummy Treatment Arm P","21/06/2022 13:49",185,78.9,"kg","cm",1.62,504
"380","XX01",11202,"Analyte01","SERUM","EVERY 3 WEEKS",3,1007.416667,-0.583333333,0,1008,0,"Analyte01","ug/mL","intravascular",35,65,"M","WHITE",1.58,"Hours","cells",0,"Analyte01","Cycle 3 Day 1",0,"copies/ug",0,"DOSE 3",339203,"Dummy Treatment Arm A","Dummy Treatment Arm P","21/06/2022 13:49",185,78.9,"kg","cm",1.59,504
"381","XX01",11202,"Analyte01","SERUM","EVERY 3 WEEKS",3,1009.536667,1.536666667,0.5,1008.5,9.17,"Analyte01","ug/mL","intravascular",35,65,"M","WHITE",0.98,"Hours","cells",0,"Analyte01","Cycle 3 Day 1",9.17,"copies/ug",0,"DOSE 3",339203,"Dummy Treatment Arm A","Dummy Treatment Arm P","12/07/2022 12:56",185,78.9,"kg","cm",0.97,504
"382","XX01",11202,"Analyte01","SERUM","EVERY 3 WEEKS",3,1174.966667,166.9666667,336,1344,0.126,"Analyte01","ug/mL","intravascular",35,65,"M","WHITE",0.98,"Hours","cells",0,"Analyte01","Cycle 3 Day 8",0.126,"copies/ug",0,"DOSE 3",339203,"Dummy Treatment Arm A","Dummy Treatment Arm P","12/07/2022 12:56",185,78.9,"kg","cm",0.98,504
"383","XX01",11202,"Analyte01","SERUM","EVERY 3 WEEKS",3,1341.786667,333.7866667,672,1680,0.0031,"Analyte01","ug/mL","intravascular",35,65,"M","WHITE",0.98,"Hours","cells",0,"Analyte01","Cycle 3 Day 15",0.0031,"copies/ug",0,"DOSE 3",339203,"Dummy Treatment Arm A","Dummy Treatment Arm P","12/07/2022 12:56",185,78.9,"kg","cm",1.03,504
"384","XX01",11203,"Analyte01","SERUM","EVERY WEEK",1,-1.086,-1.086,0,0,0,"Analyte01","ug/mL","intravascular",50,66,"M","WHITE",1.58,"Hours","cells",0,"Analyte01","Cycle 1 Day 1",0,"copies/ug",0,"DOSE 1",339203,"Dummy Treatment Arm A","Dummy Treatment Arm P","02/06/2022 12:30",174,75.5,"kg","cm",1.6,504
"385","XX01",11203,"Analyte01","SERUM","EVERY WEEK",1,1.664,1.664,0.5,0.5,12.6,"Analyte01","ug/mL","intravascular",50,66,"M","WHITE",1.58,"Hours","cells",0,"Analyte01","Cycle 1 Day 1",12.6,"copies/ug",0,"DOSE 1",339203,"Dummy Treatment Arm A","Dummy Treatment Arm P","02/06/2022 12:30",174,75.5,"kg","cm",1.57,504
"386","XX01",11203,"Analyte01","SERUM","EVERY WEEK",1,6.084,6.084,4,4,14,"Analyte01","ug/mL","intravascular",50,66,"M","WHITE",1.58,"Hours","cells",0,"Analyte01","Cycle 1 Day 1",14,"copies/ug",0,"DOSE 1",339203,"Dummy Treatment Arm A","Dummy Treatment Arm P","02/06/2022 12:30",174,75.5,"kg","cm",1.59,504
"387","XX01",11203,"Analyte01","SERUM","EVERY WEEK",1,8.754,8.754,8,8,14.5,"Analyte01","ug/mL","intravascular",50,66,"M","WHITE",1.58,"Hours","cells",0,"Analyte01","Cycle 1 Day 1",14.5,"copies/ug",0,"DOSE 1",339203,"Dummy Treatment Arm A","Dummy Treatment Arm P","02/06/2022 12:30",174,75.5,"kg","cm",1.54,504
"388","XX01",11203,"Analyte01","SERUM","EVERY WEEK",1,25.914,25.914,48,48,10.4,"Analyte01","ug/mL","intravascular",50,66,"M","WHITE",1.58,"Hours","cells",0,"Analyte01","Cycle 1 Day 2",10.4,"copies/ug",0,"DOSE 1",339203,"Dummy Treatment Arm A","Dummy Treatment Arm P","02/06/2022 12:30",174,75.5,"kg","cm",1.57,504
"389","XX01",11203,"Analyte01","SERUM","EVERY WEEK",1,71.584,71.584,144,144,6.46,"Analyte01","ug/mL","intravascular",50,66,"M","WHITE",1.58,"Hours","cells",0,"Analyte01","Cycle 1 Day 4",6.46,"copies/ug",0,"DOSE 1",339203,"Dummy Treatment Arm A","Dummy Treatment Arm P","02/06/2022 12:30",174,75.5,"kg","cm",1.63,504
"390","XX01",11203,"Analyte01","SERUM","EVERY WEEK",2,167.834,-0.166,0,168,2,"Analyte01","ug/mL","intravascular",50,66,"M","WHITE",1.58,"Hours","cells",0,"Analyte01","Cycle 1 Day 8",2,"copies/ug",0,"DOSE 2",339203,"Dummy Treatment Arm A","Dummy Treatment Arm P","02/06/2022 12:30",174,75.5,"kg","cm",1.64,504
"391","XX01",11203,"Analyte01","SERUM","EVERY WEEK",2,169.584,1.584,0.5,168.5,21.4,"Analyte01","ug/mL","intravascular",50,66,"M","WHITE",1.25,"Hours","cells",0,"Analyte01","Cycle 1 Day 8",21.4,"copies/ug",0,"DOSE 2",339203,"Dummy Treatment Arm A","Dummy Treatment Arm P","09/06/2022 14:45",174,75.5,"kg","cm",1.31,504
"392","XX01",11203,"Analyte01","SERUM","EVERY WEEK",2,172.464,4.464,4,172,24.1,"Analyte01","ug/mL","intravascular",50,66,"M","WHITE",1.25,"Hours","cells",0,"Analyte01","Cycle 1 Day 8",24.1,"copies/ug",0,"DOSE 2",339203,"Dummy Treatment Arm A","Dummy Treatment Arm P","09/06/2022 14:45",174,75.5,"kg","cm",1.23,504
"393","XX01",11203,"Analyte01","SERUM","EVERY WEEK",2,191.504,23.504,48,216,16.6,"Analyte01","ug/mL","intravascular",50,66,"M","WHITE",1.25,"Hours","cells",0,"Analyte01","Cycle 1 Day 9",16.6,"copies/ug",0,"DOSE 2",339203,"Dummy Treatment Arm A","Dummy Treatment Arm P","09/06/2022 14:45",174,75.5,"kg","cm",1.26,504
"394","XX01",11203,"Analyte01","SERUM","EVERY WEEK",2,263.334,95.334,192,360,7.68,"Analyte01","ug/mL","intravascular",50,66,"M","WHITE",1.25,"Hours","cells",0,"Analyte01","Cycle 1 Day 12",7.68,"copies/ug",0,"DOSE 2",339203,"Dummy Treatment Arm A","Dummy Treatment Arm P","09/06/2022 14:45",174,75.5,"kg","cm",1.28,504
"395","XX01",11203,"Analyte01","SERUM","EVERY WEEK",3,336.914,0.914,0,336,3.16,"Analyte01","ug/mL","intravascular",50,66,"M","WHITE",1.25,"Hours","cells",0,"Analyte01","Cycle 1 Day 15",3.16,"copies/ug",0,"DOSE 3",339203,"Dummy Treatment Arm A","Dummy Treatment Arm P","09/06/2022 14:45",174,75.5,"kg","cm",1.22,504
"396","XX01",11203,"Analyte01","SERUM","EVERY WEEK",3,337.614,1.614,0.5,336.5,16.2,"Analyte01","ug/mL","intravascular",50,66,"M","WHITE",0.58,"Hours","cells",0,"Analyte01","Cycle 1 Day 15",16.2,"copies/ug",0,"DOSE 3",339203,"Dummy Treatment Arm A","Dummy Treatment Arm P","16/06/2022 11:30",174,75.5,"kg","cm",0.6,504
"397","XX01",11203,"Analyte01","SERUM","EVERY WEEK",4,504.584,0.584,0,504,3.28,"Analyte01","ug/mL","intravascular",50,66,"M","WHITE",0.58,"Hours","cells",0,"Analyte01","Cycle 2 Day 1",3.28,"copies/ug",0,"DOSE 4",339203,"Dummy Treatment Arm A","Dummy Treatment Arm P","16/06/2022 11:30",174,75.5,"kg","cm",0.63,504
"398","XX01",11203,"Analyte01","SERUM","EVERY WEEK",4,505.704,1.704,0.5,504.5,23.3,"Analyte01","ug/mL","intravascular",50,66,"M","WHITE",0.5,"Hours","cells",0,"Analyte01","Cycle 2 Day 1",23.3,"copies/ug",0,"DOSE 4",339203,"Dummy Treatment Arm A","Dummy Treatment Arm P","23/06/2022 11:20",174,75.5,"kg","cm",0.48,504
"399","XX01",11203,"Analyte01","SERUM","EVERY WEEK",4,531.164,27.164,48,552,23.2,"Analyte01","ug/mL","intravascular",50,66,"M","WHITE",0.5,"Hours","cells",0,"Analyte01","Cycle 2 Day 2",23.2,"copies/ug",0,"DOSE 4",339203,"Dummy Treatment Arm A","Dummy Treatment Arm P","23/06/2022 11:20",174,75.5,"kg","cm",0.49,504
"400","XX01",11203,"Analyte01","SERUM","EVERY WEEK",5,672.004,0.004,0,672,3.23,"Analyte01","ug/mL","intravascular",50,66,"M","WHITE",0.5,"Hours","cells",0,"Analyte01","Cycle 2 Day 8",3.23,"copies/ug",0,"DOSE 5",339203,"Dummy Treatment Arm A","Dummy Treatment Arm P","23/06/2022 11:20",174,75.5,"kg","cm",0.53,504
"401","XX01",11203,"Analyte01","SERUM","EVERY WEEK",5,673.664,1.664,0.5,672.5,16,"Analyte01","ug/mL","intravascular",50,66,"M","WHITE",0.5,"Hours","cells",0,"Analyte01","Cycle 2 Day 8",16,"copies/ug",0,"DOSE 5",339203,"Dummy Treatment Arm A","Dummy Treatment Arm P","30/06/2022 11:50",174,75.5,"kg","cm",0.47,504
"402","XX01",11203,"Analyte01","SERUM","EVERY WEEK",5,695.584,23.584,48,720,12,"Analyte01","ug/mL","intravascular",50,66,"M","WHITE",0.5,"Hours","cells",0,"Analyte01","Cycle 2 Day 9",12,"copies/ug",0,"DOSE 5",339203,"Dummy Treatment Arm A","Dummy Treatment Arm P","30/06/2022 11:50",174,75.5,"kg","cm",0.56,504
"403","XX01",11203,"Analyte01","SERUM","EVERY WEEK",6,840.584,0.584,0,840,3.06,"Analyte01","ug/mL","intravascular",50,66,"M","WHITE",0.5,"Hours","cells",0,"Analyte01","Cycle 2 Day 15",3.06,"copies/ug",0,"DOSE 6",339203,"Dummy Treatment Arm A","Dummy Treatment Arm P","30/06/2022 11:50",174,75.5,"kg","cm",0.53,504
"404","XX01",11203,"Analyte01","SERUM","EVERY WEEK",6,841.664,1.664,0.5,840.5,14.8,"Analyte01","ug/mL","intravascular",50,66,"M","WHITE",0.58,"Hours","cells",0,"Analyte01","Cycle 2 Day 15",14.8,"copies/ug",0,"DOSE 6",339203,"Dummy Treatment Arm A","Dummy Treatment Arm P","07/07/2022 12:00",174,75.5,"kg","cm",0.62,504
"405","XX01",11203,"Analyte01","SERUM","EVERY WEEK",7,1008.254,0.254,0,1008,3.79,"Analyte01","ug/mL","intravascular",50,66,"M","WHITE",0.58,"Hours","cells",0,"Analyte01","Cycle 3 Day 1",3.79,"copies/ug",0,"DOSE 7",339203,"Dummy Treatment Arm A","Dummy Treatment Arm P","07/07/2022 12:00",174,75.5,"kg","cm",0.61,504
"406","XX01",11203,"Analyte01","SERUM","EVERY WEEK",7,1009.664,1.664,0.5,1008.5,26.1,"Analyte01","ug/mL","intravascular",50,66,"M","WHITE",0.5,"Hours","cells",0,"Analyte01","Cycle 3 Day 1",26.1,"copies/ug",0,"DOSE 7",339203,"Dummy Treatment Arm A","Dummy Treatment Arm P","14/07/2022 11:30",174,75.5,"kg","cm",0.52,504
"407","XX01",11203,"Analyte01","SERUM","EVERY WEEK",8,1176.164,0.164,0,1176,3.28,"Analyte01","ug/mL","intravascular",50,66,"M","WHITE",0.5,"Hours","cells",0,"Analyte01","Cycle 3 Day 8",3.28,"copies/ug",0,"DOSE 8",339203,"Dummy Treatment Arm A","Dummy Treatment Arm P","14/07/2022 11:30",174,75.5,"kg","cm",0.48,504
"408","XX01",11203,"Analyte01","SERUM","EVERY WEEK",8,1177.634,1.634,0.5,1176.5,13.9,"Analyte01","ug/mL","intravascular",50,66,"M","WHITE",0.5,"Hours","cells",0,"Analyte01","Cycle 3 Day 8",13.9,"copies/ug",0,"DOSE 8",339203,"Dummy Treatment Arm A","Dummy Treatment Arm P","21/07/2022 13:40",174,75.5,"kg","cm",0.55,504
"409","XX01",11203,"Analyte01","SERUM","EVERY WEEK",9,1343.004,-0.996,0,1344,4.09,"Analyte01","ug/mL","intravascular",50,66,"M","WHITE",0.5,"Hours","cells",0,"Analyte01","Cycle 3 Day 15",4.09,"copies/ug",0,"DOSE 9",339203,"Dummy Treatment Arm A","Dummy Treatment Arm P","21/07/2022 13:40",174,75.5,"kg","cm",0.46,504
"410","XX01",11203,"Analyte01","SERUM","EVERY WEEK",9,1345.664,1.664,0.5,1344.5,24,"Analyte01","ug/mL","intravascular",50,66,"M","WHITE",0.58,"Hours","cells",0,"Analyte01","Cycle 3 Day 15",24,"copies/ug",0,"DOSE 9",339203,"Dummy Treatment Arm A","Dummy Treatment Arm P","28/07/2022 14:00",174,75.5,"kg","cm",0.54,504
"411","XX01",11203,"Analyte01","SERUM","EVERY WEEK",10,1512.004,0.004,0,1512,4.02,"Analyte01","ug/mL","intravascular",50,66,"M","WHITE",0.58,"Hours","cells",0,"Analyte01","Cycle 4 Day 1",4.02,"copies/ug",0,"DOSE 10",339203,"Dummy Treatment Arm A","Dummy Treatment Arm P","28/07/2022 14:00",174,75.5,"kg","cm",0.53,504
"412","XX01",11203,"Analyte01","SERUM","EVERY WEEK",10,1513.714,1.714,0.5,1512.5,23.4,"Analyte01","ug/mL","intravascular",50,66,"M","WHITE",0.5,"Hours","cells",0,"Analyte01","Cycle 4 Day 1",23.4,"copies/ug",0,"DOSE 10",339203,"Dummy Treatment Arm A","Dummy Treatment Arm P","04/08/2022 11:50",174,75.5,"kg","cm",0.54,504
"413","XX01",11203,"Analyte01","SERUM","EVERY WEEK",11,1679.754,-0.246,0,1680,3.39,"Analyte01","ug/mL","intravascular",50,66,"M","WHITE",0.5,"Hours","cells",0,"Analyte01","Cycle 4 Day 8",3.39,"copies/ug",0,"DOSE 11",339203,"Dummy Treatment Arm A","Dummy Treatment Arm P","04/08/2022 11:50",174,75.5,"kg","cm",0.45,504
"414","XX01",11203,"Analyte01","SERUM","EVERY WEEK",11,1681.664,1.664,0.5,1680.5,17.9,"Analyte01","ug/mL","intravascular",50,66,"M","WHITE",0.58,"Hours","cells",0,"Analyte01","Cycle 4 Day 8",17.9,"copies/ug",0,"DOSE 11",339203,"Dummy Treatment Arm A","Dummy Treatment Arm P","11/08/2022 12:35",174,75.5,"kg","cm",0.61,504
"415","XX01",11203,"Analyte01","SERUM","EVERY WEEK",12,1848.104,0.104,0,1848,3.74,"Analyte01","ug/mL","intravascular",50,66,"M","WHITE",0.58,"Hours","cells",0,"Analyte01","Cycle 4 Day 15",3.74,"copies/ug",0,"DOSE 12",339203,"Dummy Treatment Arm A","Dummy Treatment Arm P","11/08/2022 12:35",174,75.5,"kg","cm",0.57,504
"416","XX01",11203,"Analyte01","SERUM","EVERY WEEK",12,1849.634,1.634,0.5,1848.5,12.8,"Analyte01","ug/mL","intravascular",50,66,"M","WHITE",0.65,"Hours","cells",0,"Analyte01","Cycle 4 Day 15",12.8,"copies/ug",0,"DOSE 12",339203,"Dummy Treatment Arm A","Dummy Treatment Arm P","18/08/2022 11:09",174,75.5,"kg","cm",0.66,504
"417","XX01",11203,"Analyte01","SERUM","EVERY WEEK",13,2015.414,-0.586,0,2016,3.83,"Analyte01","ug/mL","intravascular",50,66,"M","WHITE",0.65,"Hours","cells",0,"Analyte01","Cycle 5 Day 1",3.83,"copies/ug",0,"DOSE 13",339203,"Dummy Treatment Arm A","Dummy Treatment Arm P","18/08/2022 11:09",174,75.5,"kg","cm",0.6,504
"418","XX01",11203,"Analyte01","SERUM","EVERY WEEK",13,2017.754,1.754,0.5,2016.5,15.8,"Analyte01","ug/mL","intravascular",50,66,"M","WHITE",0.5,"Hours","cells",0,"Analyte01","Cycle 5 Day 1",15.8,"copies/ug",0,"DOSE 13",339203,"Dummy Treatment Arm A","Dummy Treatment Arm P","25/08/2022 14:40",174,75.5,"kg","cm",0.56,504
"419","XX01",11204,"Analyte01","SERUM","EVERY WEEK",1,-1.168,-1.168,0,0,0,"Analyte01","ug/mL","intravascular",50,69,"F","WHITE",2.58,"Hours","cells",0,"Analyte01","Cycle 1 Day 1",0,"copies/ug",0,"DOSE 1",339203,"Dummy Treatment Arm A","Dummy Treatment Arm P","09/06/2022 13:35",158,49.3,"kg","cm",2.59,504
"420","XX01",11204,"Analyte01","SERUM","EVERY WEEK",1,2.752,2.752,0.5,0.5,20.1,"Analyte01","ug/mL","intravascular",50,69,"F","WHITE",2.58,"Hours","cells",0,"Analyte01","Cycle 1 Day 1",20.1,"copies/ug",0,"DOSE 1",339203,"Dummy Treatment Arm A","Dummy Treatment Arm P","09/06/2022 13:35",158,49.3,"kg","cm",2.58,504
"421","XX01",11204,"Analyte01","SERUM","EVERY WEEK",1,6.752,6.752,4,4,20.7,"Analyte01","ug/mL","intravascular",50,69,"F","WHITE",2.58,"Hours","cells",0,"Analyte01","Cycle 1 Day 1",20.7,"copies/ug",0,"DOSE 1",339203,"Dummy Treatment Arm A","Dummy Treatment Arm P","09/06/2022 13:35",158,49.3,"kg","cm",2.59,504
"422","XX01",11204,"Analyte01","SERUM","EVERY WEEK",1,9.662,9.662,8,8,19.9,"Analyte01","ug/mL","intravascular",50,69,"F","WHITE",2.58,"Hours","cells",0,"Analyte01","Cycle 1 Day 1",19.9,"copies/ug",0,"DOSE 1",339203,"Dummy Treatment Arm A","Dummy Treatment Arm P","09/06/2022 13:35",158,49.3,"kg","cm",2.57,504
"423","XX01",11204,"Analyte01","SERUM","EVERY WEEK",1,27.002,27.002,48,48,11.1,"Analyte01","ug/mL","intravascular",50,69,"F","WHITE",2.58,"Hours","cells",0,"Analyte01","Cycle 1 Day 2",11.1,"copies/ug",0,"DOSE 1",339203,"Dummy Treatment Arm A","Dummy Treatment Arm P","09/06/2022 13:35",158,49.3,"kg","cm",2.61,504
"424","XX01",11204,"Analyte01","SERUM","EVERY WEEK",1,72.752,72.752,144,144,6.14,"Analyte01","ug/mL","intravascular",50,69,"F","WHITE",2.58,"Hours","cells",0,"Analyte01","Cycle 1 Day 4",6.14,"copies/ug",0,"DOSE 1",339203,"Dummy Treatment Arm A","Dummy Treatment Arm P","09/06/2022 13:35",158,49.3,"kg","cm",2.55,504
"425","XX01",11204,"Analyte01","SERUM","EVERY WEEK",2,503.002,-0.998,0,504,0.0166,"Analyte01","ug/mL","intravascular",50,69,"F","WHITE",2.58,"Hours","cells",0,"Analyte01","Cycle 2 Day 1",0.0166,"copies/ug",0,"DOSE 2",339203,"Dummy Treatment Arm A","Dummy Treatment Arm P","09/06/2022 13:35",158,49.3,"kg","cm",2.53,504
"426","XX01",11204,"Analyte01","SERUM","EVERY WEEK",2,506.662,2.662,0.5,504.5,13,"Analyte01","ug/mL","intravascular",50,69,"F","WHITE",3.3,"Hours","cells",0,"Analyte01","Cycle 2 Day 1",13,"copies/ug",0,"DOSE 2",339203,"Dummy Treatment Arm A","Dummy Treatment Arm P","30/06/2022 13:55",158,49.3,"kg","cm",3.26,504
"427","XX01",11204,"Analyte01","SERUM","EVERY WEEK",2,530.502,26.502,48,552,13.4,"Analyte01","ug/mL","intravascular",50,69,"F","WHITE",3.3,"Hours","cells",0,"Analyte01","Cycle 2 Day 2",13.4,"copies/ug",0,"DOSE 2",339203,"Dummy Treatment Arm A","Dummy Treatment Arm P","30/06/2022 13:55",158,49.3,"kg","cm",3.29,504
"428","XX01",11204,"Analyte01","SERUM","EVERY WEEK",3,671.712,-0.288,0,672,2.5,"Analyte01","ug/mL","intravascular",50,69,"F","WHITE",3.3,"Hours","cells",0,"Analyte01","Cycle 2 Day 8",2.5,"copies/ug",0,"DOSE 3",339203,"Dummy Treatment Arm A","Dummy Treatment Arm P","30/06/2022 13:55",158,49.3,"kg","cm",3.29,504
"429","XX01",11204,"Analyte01","SERUM","EVERY WEEK",3,674.632,2.632,0.5,672.5,14.7,"Analyte01","ug/mL","intravascular",50,69,"F","WHITE",2.12,"Hours","cells",0,"Analyte01","Cycle 2 Day 8",14.7,"copies/ug",0,"DOSE 3",339203,"Dummy Treatment Arm A","Dummy Treatment Arm P","07/07/2022 14:07",158,49.3,"kg","cm",2.15,504
"430","XX01",11204,"Analyte01","SERUM","EVERY WEEK",4,840.332,0.332,0,840,3.03,"Analyte01","ug/mL","intravascular",50,69,"F","WHITE",2.12,"Hours","cells",0,"Analyte01","Cycle 2 Day 15",3.03,"copies/ug",0,"DOSE 4",339203,"Dummy Treatment Arm A","Dummy Treatment Arm P","07/07/2022 14:07",158,49.3,"kg","cm",2.12,504
"431","XX01",11204,"Analyte01","SERUM","EVERY WEEK",4,842.662,2.662,0.5,840.5,14.8,"Analyte01","ug/mL","intravascular",50,69,"F","WHITE",1.5,"Hours","cells",0,"Analyte01","Cycle 2 Day 15",14.8,"copies/ug",0,"DOSE 4",339203,"Dummy Treatment Arm A","Dummy Treatment Arm P","14/07/2022 12:55",158,49.3,"kg","cm",1.52,504
"432","XX01",11204,"Analyte01","SERUM","EVERY WEEK",5,1008.832,0.832,0,1008,0.949,"Analyte01","ug/mL","intravascular",50,69,"F","WHITE",1.5,"Hours","cells",0,"Analyte01","Cycle 3 Day 1",0.949,"copies/ug",0,"DOSE 5",339203,"Dummy Treatment Arm A","Dummy Treatment Arm P","14/07/2022 12:55",158,49.3,"kg","cm",1.54,504
"433","XX01",11204,"Analyte01","SERUM","EVERY WEEK",5,1010.662,2.662,0.5,1008.5,12.4,"Analyte01","ug/mL","intravascular",50,69,"F","WHITE",1.67,"Hours","cells",0,"Analyte01","Cycle 3 Day 1",12.4,"copies/ug",0,"DOSE 5",339203,"Dummy Treatment Arm A","Dummy Treatment Arm P","28/07/2022 15:15",158,49.3,"kg","cm",1.71,504
"434","XX01",11204,"Analyte01","SERUM","EVERY WEEK",6,1176.982,0.982,0,1176,2.8,"Analyte01","ug/mL","intravascular",50,69,"F","WHITE",1.67,"Hours","cells",0,"Analyte01","Cycle 3 Day 8",2.8,"copies/ug",0,"DOSE 6",339203,"Dummy Treatment Arm A","Dummy Treatment Arm P","28/07/2022 15:15",158,49.3,"kg","cm",1.67,504
"435","XX01",11204,"Analyte01","SERUM","EVERY WEEK",6,1178.652,2.652,0.5,1176.5,17.1,"Analyte01","ug/mL","intravascular",50,69,"F","WHITE",1.1,"Hours","cells",0,"Analyte01","Cycle 3 Day 8",17.1,"copies/ug",0,"DOSE 6",339203,"Dummy Treatment Arm A","Dummy Treatment Arm P","04/08/2022 11:41",158,49.3,"kg","cm",1.07,504
"436","XX01",11301,"Analyte01","SERUM","EVERY 3 WEEKS",1,-0.5,-0.5,0,0,0,"Analyte01","ug/mL","intravascular",50,62,"M","WHITE",1.5,"Hours","cells",0,"Analyte01","Cycle 1 Day 1",0,"copies/ug",0,"DOSE 1",339203,"Dummy Treatment Arm A","Dummy Treatment Arm P","12/07/2022 12:30",173,55.5,"kg","cm",1.57,504
"437","XX01",11301,"Analyte01","SERUM","EVERY 3 WEEKS",1,1.5,1.5,0.5,0.5,14.6,"Analyte01","ug/mL","intravascular",50,62,"M","WHITE",1.5,"Hours","cells",0,"Analyte01","Cycle 1 Day 1",14.6,"copies/ug",0,"DOSE 1",339203,"Dummy Treatment Arm A","Dummy Treatment Arm P","12/07/2022 12:30",173,55.5,"kg","cm",1.52,504
"438","XX01",11301,"Analyte01","SERUM","EVERY 3 WEEKS",1,5.5,5.5,4,4,14.5,"Analyte01","ug/mL","intravascular",50,62,"M","WHITE",1.5,"Hours","cells",0,"Analyte01","Cycle 1 Day 1",14.5,"copies/ug",0,"DOSE 1",339203,"Dummy Treatment Arm A","Dummy Treatment Arm P","12/07/2022 12:30",173,55.5,"kg","cm",1.48,504
"439","XX01",11301,"Analyte01","SERUM","EVERY 3 WEEKS",1,9.5,9.5,8,8,14.1,"Analyte01","ug/mL","intravascular",50,62,"M","WHITE",1.5,"Hours","cells",0,"Analyte01","Cycle 1 Day 1",14.1,"copies/ug",0,"DOSE 1",339203,"Dummy Treatment Arm A","Dummy Treatment Arm P","12/07/2022 12:30",173,55.5,"kg","cm",1.49,504
"440","XX01",11301,"Analyte01","SERUM","EVERY 3 WEEKS",1,27.33,27.33,48,48,9.67,"Analyte01","ug/mL","intravascular",50,62,"M","WHITE",1.5,"Hours","cells",0,"Analyte01","Cycle 1 Day 2",9.67,"copies/ug",0,"DOSE 1",339203,"Dummy Treatment Arm A","Dummy Treatment Arm P","12/07/2022 12:30",173,55.5,"kg","cm",1.53,504
"441","XX01",11301,"Analyte01","SERUM","EVERY 3 WEEKS",1,47,47,144,144,6.04,"Analyte01","ug/mL","intravascular",50,62,"M","WHITE",1.5,"Hours","cells",0,"Analyte01","Cycle 1 Day 4",6.04,"copies/ug",0,"DOSE 1",339203,"Dummy Treatment Arm A","Dummy Treatment Arm P","12/07/2022 12:30",173,55.5,"kg","cm",1.51,504
"442","XX01",11301,"Analyte01","SERUM","EVERY 3 WEEKS",2,168.33,0.33,0,168,1.77,"Analyte01","ug/mL","intravascular",50,62,"M","WHITE",1.5,"Hours","cells",0,"Analyte01","Cycle 1 Day 8",1.77,"copies/ug",0,"DOSE 2",339203,"Dummy Treatment Arm A","Dummy Treatment Arm P","12/07/2022 12:30",173,55.5,"kg","cm",1.48,504
"443","XX01",11301,"Analyte01","SERUM","EVERY WEEK",2,169.5,1.5,0.5,168.5,12.9,"Analyte01","ug/mL","intravascular",50,62,"M","WHITE",1,"Hours","cells",0,"Analyte01","Cycle 1 Day 8",12.9,"copies/ug",0,"DOSE 2",339203,"Dummy Treatment Arm A","Dummy Treatment Arm P","19/07/2022 17:10",173,55.5,"kg","cm",0.99,504
"444","XX01",11301,"Analyte01","SERUM","EVERY WEEK",2,172.5,4.5,4,172,14.7,"Analyte01","ug/mL","intravascular",50,62,"M","WHITE",1,"Hours","cells",0,"Analyte01","Cycle 1 Day 8",14.7,"copies/ug",0,"DOSE 2",339203,"Dummy Treatment Arm A","Dummy Treatment Arm P","19/07/2022 17:10",173,55.5,"kg","cm",1,504
"445","XX01",11301,"Analyte01","SERUM","EVERY WEEK",2,188.83,20.83,48,216,13.3,"Analyte01","ug/mL","intravascular",50,62,"M","WHITE",1,"Hours","cells",0,"Analyte01","Cycle 1 Day 9",13.3,"copies/ug",0,"DOSE 2",339203,"Dummy Treatment Arm A","Dummy Treatment Arm P","19/07/2022 17:10",173,55.5,"kg","cm",0.99,504
"446","XX01",11301,"Analyte01","SERUM","EVERY WEEK",2,258.83,90.83,192,360,5.95,"Analyte01","ug/mL","intravascular",50,62,"M","WHITE",1,"Hours","cells",0,"Analyte01","Cycle 1 Day 12",5.95,"copies/ug",0,"DOSE 2",339203,"Dummy Treatment Arm A","Dummy Treatment Arm P","19/07/2022 17:10",173,55.5,"kg","cm",0.93,504
"447","XX01",11301,"Analyte01","SERUM","EVERY WEEK",3,336.83,0.83,0,336,1.92,"Analyte01","ug/mL","intravascular",50,62,"M","WHITE",1,"Hours","cells",0,"Analyte01","Cycle 1 Day 15",1.92,"copies/ug",0,"DOSE 3",339203,"Dummy Treatment Arm A","Dummy Treatment Arm P","19/07/2022 17:10",173,55.5,"kg","cm",1,504
"448","XX01",11301,"Analyte01","SERUM","EVERY WEEK",3,337.5,1.5,0.5,336.5,23.2,"Analyte01","ug/mL","intravascular",50,62,"M","WHITE",0.5,"Hours","cells",0,"Analyte01","Cycle 1 Day 15",23.2,"copies/ug",0,"DOSE 3",339203,"Dummy Treatment Arm A","Dummy Treatment Arm P","26/07/2022 16:25",173,55.5,"kg","cm",0.52,504
"449","XX01",11301,"Analyte01","SERUM","EVERY WEEK",3,362.58,26.58,48,384,12,"Analyte01","ug/mL","intravascular",50,62,"M","WHITE",0.5,"Hours","cells",0,"Analyte01","Cycle 1 Day 16",12,"copies/ug",0,"DOSE 3",339203,"Dummy Treatment Arm A","Dummy Treatment Arm P","26/07/2022 16:25",173,55.5,"kg","cm",0.46,504
"450","XX01",11301,"Analyte01","SERUM","EVERY WEEK",4,504.42,0.42,0,504,2.28,"Analyte01","ug/mL","intravascular",50,62,"M","WHITE",0.5,"Hours","cells",0,"Analyte01","Cycle 2 Day 1",2.28,"copies/ug",0,"DOSE 4",339203,"Dummy Treatment Arm A","Dummy Treatment Arm P","26/07/2022 16:25",173,55.5,"kg","cm",0.52,504
"451","XX01",11301,"Analyte01","SERUM","EVERY WEEK",4,505.5,1.5,0.5,504.5,20,"Analyte01","ug/mL","intravascular",50,62,"M","WHITE",1,"Hours","cells",0,"Analyte01","Cycle 2 Day 1",20,"copies/ug",0,"DOSE 4",339203,"Dummy Treatment Arm A","Dummy Treatment Arm P","02/08/2022 10:55",173,55.5,"kg","cm",0.99,504
"452","XX01",11301,"Analyte01","SERUM","EVERY WEEK",4,531.08,27.08,48,552,12.6,"Analyte01","ug/mL","intravascular",50,62,"M","WHITE",1,"Hours","cells",0,"Analyte01","Cycle 2 Day 2",12.6,"copies/ug",0,"DOSE 4",339203,"Dummy Treatment Arm A","Dummy Treatment Arm P","02/08/2022 10:55",173,55.5,"kg","cm",0.94,504
"453","XX01",11301,"Analyte01","SERUM","EVERY WEEK",5,672.92,0.92,0,672,3.6,"Analyte01","ug/mL","intravascular",50,62,"M","WHITE",1,"Hours","cells",0,"Analyte01","Cycle 2 Day 8",3.6,"copies/ug",0,"DOSE 5",339203,"Dummy Treatment Arm A","Dummy Treatment Arm P","02/08/2022 10:55",173,55.5,"kg","cm",0.97,504
"454","XX01",11301,"Analyte01","SERUM","EVERY WEEK",5,673.5,1.5,0.5,672.5,16.5,"Analyte01","ug/mL","intravascular",50,62,"M","WHITE",0.5,"Hours","cells",0,"Analyte01","Cycle 2 Day 8",16.5,"copies/ug",0,"DOSE 5",339203,"Dummy Treatment Arm A","Dummy Treatment Arm P","09/08/2022 13:05",173,55.5,"kg","cm",0.52,504
"455","XX01",11301,"Analyte01","SERUM","EVERY WEEK",5,694.75,22.75,48,720,15.7,"Analyte01","ug/mL","intravascular",50,62,"M","WHITE",0.5,"Hours","cells",0,"Analyte01","Cycle 2 Day 9",15.7,"copies/ug",0,"DOSE 5",339203,"Dummy Treatment Arm A","Dummy Treatment Arm P","09/08/2022 13:05",173,55.5,"kg","cm",0.53,504
"456","XX01",11301,"Analyte01","SERUM","EVERY WEEK",5,768,96,192,864,7.75,"Analyte01","ug/mL","intravascular",50,62,"M","WHITE",0.5,"Hours","cells",0,"Analyte01","Cycle 2 Day 12",7.75,"copies/ug",0,"DOSE 5",339203,"Dummy Treatment Arm A","Dummy Treatment Arm P","09/08/2022 13:05",173,55.5,"kg","cm",0.56,504
"457","XX01",11301,"Analyte01","SERUM","EVERY WEEK",6,840.67,0.67,0,840,4.49,"Analyte01","ug/mL","intravascular",50,62,"M","WHITE",0.5,"Hours","cells",0,"Analyte01","Cycle 2 Day 15",4.49,"copies/ug",0,"DOSE 6",339203,"Dummy Treatment Arm A","Dummy Treatment Arm P","09/08/2022 13:05",173,55.5,"kg","cm",0.5,504
"458","XX01",11301,"Analyte01","SERUM","EVERY WEEK",6,841.5,1.5,0.5,840.5,18.9,"Analyte01","ug/mL","intravascular",50,62,"M","WHITE",0.5,"Hours","cells",0,"Analyte01","Cycle 2 Day 15",18.9,"copies/ug",0,"DOSE 6",339203,"Dummy Treatment Arm A","Dummy Treatment Arm P","16/08/2022 12:50",173,55.5,"kg","cm",0.54,504
"459","XX01",11301,"Analyte01","SERUM","EVERY WEEK",7,1008.92,0.92,0,1008,4.13,"Analyte01","ug/mL","intravascular",50,62,"M","WHITE",0.5,"Hours","cells",0,"Analyte01","Cycle 3 Day 1",4.13,"copies/ug",0,"DOSE 7",339203,"Dummy Treatment Arm A","Dummy Treatment Arm P","16/08/2022 12:50",173,55.5,"kg","cm",0.54,504
"460","XX01",11301,"Analyte01","SERUM","EVERY WEEK",7,1009.5,1.5,0.5,1008.5,10.9,"Analyte01","ug/mL","intravascular",50,62,"M","WHITE",0.5,"Hours","cells",0,"Analyte01","Cycle 3 Day 1",10.9,"copies/ug",0,"DOSE 7",339203,"Dummy Treatment Arm A","Dummy Treatment Arm P","23/08/2022 11:05",173,55.5,"kg","cm",0.49,504
"461","XX01",11302,"Analyte01","SERUM","EVERY WEEK",1,-0.164,-0.164,0,0,0,"Analyte01","ug/mL","intravascular",50,65,"F","WHITE",1.67,"Hours","cells",0,"Analyte01","Cycle 1 Day 1",0,"copies/ug",0,"DOSE 1",339203,"Dummy Treatment Arm A","Dummy Treatment Arm P","16/08/2022 12:55",165,81.2,"kg","cm",1.7,504
"462","XX01",11302,"Analyte01","SERUM","EVERY WEEK",1,1.716,1.716,0.5,0.5,9.13,"Analyte01","ug/mL","intravascular",50,65,"F","WHITE",1.67,"Hours","cells",0,"Analyte01","Cycle 1 Day 1",9.13,"copies/ug",0,"DOSE 1",339203,"Dummy Treatment Arm A","Dummy Treatment Arm P","16/08/2022 12:55",165,81.2,"kg","cm",1.67,504
"463","XX01",11302,"Analyte01","SERUM","EVERY WEEK",1,5.666,5.666,4,4,13.7,"Analyte01","ug/mL","intravascular",50,65,"F","WHITE",1.67,"Hours","cells",0,"Analyte01","Cycle 1 Day 1",13.7,"copies/ug",0,"DOSE 1",339203,"Dummy Treatment Arm A","Dummy Treatment Arm P","16/08/2022 12:55",165,81.2,"kg","cm",1.65,504
"464","XX01",11302,"Analyte01","SERUM","EVERY WEEK",1,8.996,8.996,8,8,13.4,"Analyte01","ug/mL","intravascular",50,65,"F","WHITE",1.67,"Hours","cells",0,"Analyte01","Cycle 1 Day 1",13.4,"copies/ug",0,"DOSE 1",339203,"Dummy Treatment Arm A","Dummy Treatment Arm P","16/08/2022 12:55",165,81.2,"kg","cm",1.63,504
"465","XX01",11302,"Analyte01","SERUM","EVERY WEEK",1,25.836,25.836,48,48,8.65,"Analyte01","ug/mL","intravascular",50,65,"F","WHITE",1.67,"Hours","cells",0,"Analyte01","Cycle 1 Day 2",8.65,"copies/ug",0,"DOSE 1",339203,"Dummy Treatment Arm A","Dummy Treatment Arm P","16/08/2022 12:55",165,81.2,"kg","cm",1.75,504
"466","XX01",11302,"Analyte01","SERUM","EVERY WEEK",1,75.586,75.586,144,144,3.9,"Analyte01","ug/mL","intravascular",50,65,"F","WHITE",1.67,"Hours","cells",0,"Analyte01","Cycle 1 Day 4",3.9,"copies/ug",0,"DOSE 1",339203,"Dummy Treatment Arm A","Dummy Treatment Arm P","16/08/2022 12:55",165,81.2,"kg","cm",1.65,504
"467","XX01",11302,"Analyte01","SERUM","EVERY WEEK",2,168.446,0.446,0,168,1.01,"Analyte01","ug/mL","intravascular",50,65,"F","WHITE",1.67,"Hours","cells",0,"Analyte01","Cycle 1 Day 8",1.01,"copies/ug",0,"DOSE 2",339203,"Dummy Treatment Arm A","Dummy Treatment Arm P","16/08/2022 12:55",165,81.2,"kg","cm",1.67,504
"468","XX01",11302,"Analyte01","SERUM","EVERY WEEK",2,169.786,1.786,0.5,168.5,11.9,"Analyte01","ug/mL","intravascular",50,65,"F","WHITE",1.05,"Hours","cells",0,"Analyte01","Cycle 1 Day 8",11.9,"copies/ug",0,"DOSE 2",339203,"Dummy Treatment Arm A","Dummy Treatment Arm P","23/08/2022 14:08",165,81.2,"kg","cm",1.05,504
"469","XX01",11302,"Analyte01","SERUM","EVERY WEEK",2,172.696,4.696,4,172,14.8,"Analyte01","ug/mL","intravascular",50,65,"F","WHITE",1.05,"Hours","cells",0,"Analyte01","Cycle 1 Day 8",14.8,"copies/ug",0,"DOSE 2",339203,"Dummy Treatment Arm A","Dummy Treatment Arm P","23/08/2022 14:08",165,81.2,"kg","cm",1.01,504
"470","XX01",11302,"Analyte01","SERUM","EVERY WEEK",2,192.366,24.366,48,216,11.4,"Analyte01","ug/mL","intravascular",50,65,"F","WHITE",1.05,"Hours","cells",0,"Analyte01","Cycle 1 Day 9",11.4,"copies/ug",0,"DOSE 2",339203,"Dummy Treatment Arm A","Dummy Treatment Arm P","23/08/2022 14:08",165,81.2,"kg","cm",1.04,504
"471","XX01",11302,"Analyte01","SERUM","EVERY WEEK",2,263.696,95.696,192,360,4.1,"Analyte01","ug/mL","intravascular",50,65,"F","WHITE",1.05,"Hours","cells",0,"Analyte01","Cycle 1 Day 12",4.1,"copies/ug",0,"DOSE 2",339203,"Dummy Treatment Arm A","Dummy Treatment Arm P","23/08/2022 14:08",165,81.2,"kg","cm",1.02,504
"472","XX01",25101,"Analyte01","SERUM","EVERY 3 WEEKS",1,-0.081428571,-0.081428571,0,0,0,"Analyte01","ug/mL","intravascular",35,70,"F","WHITE",1.72,"Hours","cells",0,"Analyte01","Cycle 1 Day 1",0,"copies/ug",0,"DOSE 1",339203,"Dummy Treatment Arm A","Dummy Treatment Arm P","31/05/2022 13:13",149,64,"kg","cm",1.77,504
"473","XX01",25101,"Analyte01","SERUM","EVERY 3 WEEKS",1,1.868571429,1.868571429,0.5,0.5,6.7,"Analyte01","ug/mL","intravascular",35,70,"F","WHITE",1.72,"Hours","cells",0,"Analyte01","Cycle 1 Day 1",6.7,"copies/ug",0,"DOSE 1",339203,"Dummy Treatment Arm A","Dummy Treatment Arm P","31/05/2022 13:13",149,64,"kg","cm",1.67,504
"474","XX01",25101,"Analyte01","SERUM","EVERY 3 WEEKS",1,5.748571429,5.748571429,4,4,10.3,"Analyte01","ug/mL","intravascular",35,70,"F","WHITE",1.72,"Hours","cells",0,"Analyte01","Cycle 1 Day 1",10.3,"copies/ug",0,"DOSE 1",339203,"Dummy Treatment Arm A","Dummy Treatment Arm P","31/05/2022 13:13",149,64,"kg","cm",1.71,504
"475","XX01",25101,"Analyte01","SERUM","EVERY 3 WEEKS",1,9.748571429,9.748571429,8,8,12.8,"Analyte01","ug/mL","intravascular",35,70,"F","WHITE",1.72,"Hours","cells",0,"Analyte01","Cycle 1 Day 1",12.8,"copies/ug",0,"DOSE 1",339203,"Dummy Treatment Arm A","Dummy Treatment Arm P","31/05/2022 13:13",149,64,"kg","cm",1.68,504
"476","XX01",25101,"Analyte01","SERUM","EVERY 3 WEEKS",1,28.74857143,28.74857143,48,48,10,"Analyte01","ug/mL","intravascular",35,70,"F","WHITE",1.72,"Hours","cells",0,"Analyte01","Cycle 1 Day 2",10,"copies/ug",0,"DOSE 1",339203,"Dummy Treatment Arm A","Dummy Treatment Arm P","31/05/2022 13:13",149,64,"kg","cm",1.72,504
"477","XX01",25101,"Analyte01","SERUM","EVERY 3 WEEKS",1,75.49857143,75.49857143,144,144,6.61,"Analyte01","ug/mL","intravascular",35,70,"F","WHITE",1.72,"Hours","cells",0,"Analyte01","Cycle 1 Day 4",6.61,"copies/ug",0,"DOSE 1",339203,"Dummy Treatment Arm A","Dummy Treatment Arm P","31/05/2022 13:13",149,64,"kg","cm",1.72,504
"478","XX01",25101,"Analyte01","SERUM","EVERY 3 WEEKS",1,170.7485714,170.7485714,336,336,2.59,"Analyte01","ug/mL","intravascular",35,70,"F","WHITE",1.72,"Hours","cells",0,"Analyte01","Cycle 1 Day 8",2.59,"copies/ug",0,"DOSE 1",339203,"Dummy Treatment Arm A","Dummy Treatment Arm P","31/05/2022 13:13",149,64,"kg","cm",1.74,504
"479","XX01",25101,"Analyte01","SERUM","EVERY 3 WEEKS",1,338.0885714,338.0885714,672,672,0.349,"Analyte01","ug/mL","intravascular",35,70,"F","WHITE",1.72,"Hours","cells",0,"Analyte01","Cycle 1 Day 15",0.349,"copies/ug",0,"DOSE 1",339203,"Dummy Treatment Arm A","Dummy Treatment Arm P","31/05/2022 13:13",149,64,"kg","cm",1.67,504
"480","XX01",25101,"Analyte01","SERUM","EVERY 3 WEEKS",2,504.2985714,0.298571429,0,504,0.0185,"Analyte01","ug/mL","intravascular",35,70,"F","WHITE",1.72,"Hours","cells",0,"Analyte01","Cycle 2 Day 1",0.0185,"copies/ug",0,"DOSE 2",339203,"Dummy Treatment Arm A","Dummy Treatment Arm P","31/05/2022 13:13",149,64,"kg","cm",1.71,504
"481","XX01",25101,"Analyte01","SERUM","EVERY 3 WEEKS",2,506.1885714,2.188571429,0.5,504.5,11.7,"Analyte01","ug/mL","intravascular",35,70,"F","WHITE",1.17,"Hours","cells",0,"Analyte01","Cycle 2 Day 1",11.7,"copies/ug",0,"DOSE 2",339203,"Dummy Treatment Arm A","Dummy Treatment Arm P","21/06/2022 13:50",149,64,"kg","cm",1.14,504
"482","XX01",25101,"Analyte01","SERUM","EVERY 3 WEEKS",2,531.8885714,27.88857143,48,552,9,"Analyte01","ug/mL","intravascular",35,70,"F","WHITE",1.17,"Hours","cells",0,"Analyte01","Cycle 2 Day 2",9,"copies/ug",0,"DOSE 2",339203,"Dummy Treatment Arm A","Dummy Treatment Arm P","21/06/2022 13:50",149,64,"kg","cm",1.13,504
"483","XX01",25101,"Analyte01","SERUM","EVERY 3 WEEKS",2,668.7185714,164.7185714,336,840,1.97,"Analyte01","ug/mL","intravascular",35,70,"F","WHITE",1.17,"Hours","cells",0,"Analyte01","Cycle 2 Day 8",1.97,"copies/ug",0,"DOSE 2",339203,"Dummy Treatment Arm A","Dummy Treatment Arm P","21/06/2022 13:50",149,64,"kg","cm",1.17,504
"484","XX01",25101,"Analyte01","SERUM","EVERY 3 WEEKS",2,699.7185714,195.7185714,384,888,1.43,"Analyte01","ug/mL","intravascular",35,70,"F","WHITE",1.17,"Hours","cells",0,"Analyte01","Cycle 2 Day 9",1.43,"copies/ug",0,"DOSE 2",339203,"Dummy Treatment Arm A","Dummy Treatment Arm P","21/06/2022 13:50",149,64,"kg","cm",1.17,504
"485","XX01",25101,"Analyte01","SERUM","EVERY 3 WEEKS",2,767.7185714,263.7185714,528,1032,0.69,"Analyte01","ug/mL","intravascular",35,70,"F","WHITE",1.17,"Hours","cells",0,"Analyte01","Cycle 2 Day 12",0.69,"copies/ug",0,"DOSE 2",339203,"Dummy Treatment Arm A","Dummy Treatment Arm P","21/06/2022 13:50",149,64,"kg","cm",1.23,504
"486","XX01",25101,"Analyte01","SERUM","EVERY 3 WEEKS",3,1008.388571,0.388571429,0,1008,0.0211,"Analyte01","ug/mL","intravascular",35,70,"F","WHITE",1.17,"Hours","cells",0,"Analyte01","Cycle 3 Day 1",0.0211,"copies/ug",0,"DOSE 3",339203,"Dummy Treatment Arm A","Dummy Treatment Arm P","21/06/2022 13:50",149,64,"kg","cm",1.1,504
"487","XX01",25101,"Analyte01","SERUM","EVERY 3 WEEKS",3,1010.048571,2.048571429,0.5,1008.5,13.3,"Analyte01","ug/mL","intravascular",35,70,"F","WHITE",0.58,"Hours","cells",0,"Analyte01","Cycle 3 Day 1",13.3,"copies/ug",0,"DOSE 3",339203,"Dummy Treatment Arm A","Dummy Treatment Arm P","12/07/2022 11:20",149,64,"kg","cm",0.63,504
"488","XX01",25101,"Analyte01","SERUM","EVERY 3 WEEKS",3,1177.548571,169.5485714,336,1344,2.05,"Analyte01","ug/mL","intravascular",35,70,"F","WHITE",0.58,"Hours","cells",0,"Analyte01","Cycle 3 Day 8",2.05,"copies/ug",0,"DOSE 3",339203,"Dummy Treatment Arm A","Dummy Treatment Arm P","12/07/2022 11:20",149,64,"kg","cm",0.54,504
"489","XX01",25101,"Analyte01","SERUM","EVERY 3 WEEKS",3,1345.298571,337.2985714,672,1680,0.32,"Analyte01","ug/mL","intravascular",35,70,"F","WHITE",0.58,"Hours","cells",0,"Analyte01","Cycle 3 Day 15",0.32,"copies/ug",0,"DOSE 3",339203,"Dummy Treatment Arm A","Dummy Treatment Arm P","12/07/2022 11:20",149,64,"kg","cm",0.58,504
"490","XX01",25101,"Analyte01","SERUM","EVERY WEEK",4,1514.248571,1.748571429,0,1512.5,12.7,"Analyte01","ug/mL","intravascular",35,70,"F","WHITE",0.58,"Hours","cells",0,"Analyte01","Cycle 4 Day 1",12.7,"copies/ug",0,"DOSE 4",339203,"Dummy Treatment Arm A","Dummy Treatment Arm P","02/08/2022 10:58",149,64,"kg","cm",0.64,504
"491","XX01",25101,"Analyte01","SERUM","EVERY WEEK",4,1681.088571,168.5885714,335.5,1848,2.29,"Analyte01","ug/mL","intravascular",35,70,"F","WHITE",0.58,"Hours","cells",0,"Analyte01","Cycle 4 Day 8",2.29,"copies/ug",0,"DOSE 4",339203,"Dummy Treatment Arm A","Dummy Treatment Arm P","02/08/2022 10:58",149,64,"kg","cm",0.6,504
"492","XX01",25101,"Analyte01","SERUM","EVERY WEEK",5,2016.468571,0.468571429,0,2016,0.04,"Analyte01","ug/mL","intravascular",35,70,"F","WHITE",0.58,"Hours","cells",0,"Analyte01","Cycle 5 Day 1",0.04,"copies/ug",0,"DOSE 5",339203,"Dummy Treatment Arm A","Dummy Treatment Arm P","02/08/2022 10:58",149,64,"kg","cm",0.57,504
"493","XX01",25101,"Analyte01","SERUM","EVERY WEEK",6,2017.968571,1.468571429,0,2016.5,8.69,"Analyte01","ug/mL","intravascular",35,70,"F","WHITE",0.32,"Hours","cells",0,"Analyte01","Cycle 5 Day 1",8.69,"copies/ug",0,"DOSE 6",339203,"Dummy Treatment Arm A","Dummy Treatment Arm P","23/08/2022 11:35",149,64,"kg","cm",0.31,504
"494","XX01",25102,"Analyte01","SERUM","EVERY 3 WEEKS",1,-0.42,-0.42,0,0,0,"Analyte01","ug/mL","intravascular",35,64,"M","ASIAN",1.5,"Hours","cells",0,"Analyte01","Cycle 1 Day 1",0,"copies/ug",0,"DOSE 1",339203,"Dummy Treatment Arm A","Dummy Treatment Arm P","16/06/2022 11:10",168.9,50,"kg","cm",1.56,504
"495","XX01",25102,"Analyte01","SERUM","EVERY 3 WEEKS",1,1.5,1.5,0.5,0.5,12.1,"Analyte01","ug/mL","intravascular",35,64,"M","ASIAN",1.5,"Hours","cells",0,"Analyte01","Cycle 1 Day 1",12.1,"copies/ug",0,"DOSE 1",339203,"Dummy Treatment Arm A","Dummy Treatment Arm P","16/06/2022 11:10",168.9,50,"kg","cm",1.47,504
"496","XX01",25102,"Analyte01","SERUM","EVERY 3 WEEKS",1,5.5,5.5,4,4,11.1,"Analyte01","ug/mL","intravascular",35,64,"M","ASIAN",1.5,"Hours","cells",0,"Analyte01","Cycle 1 Day 1",11.1,"copies/ug",0,"DOSE 1",339203,"Dummy Treatment Arm A","Dummy Treatment Arm P","16/06/2022 11:10",168.9,50,"kg","cm",1.53,504
"497","XX01",25102,"Analyte01","SERUM","EVERY 3 WEEKS",1,9.5,9.5,8,8,12.5,"Analyte01","ug/mL","intravascular",35,64,"M","ASIAN",1.5,"Hours","cells",0,"Analyte01","Cycle 1 Day 1",12.5,"copies/ug",0,"DOSE 1",339203,"Dummy Treatment Arm A","Dummy Treatment Arm P","16/06/2022 11:10",168.9,50,"kg","cm",1.48,504
"498","XX01",25102,"Analyte01","SERUM","EVERY 3 WEEKS",1,25.5,25.5,48,48,8.61,"Analyte01","ug/mL","intravascular",35,64,"M","ASIAN",1.5,"Hours","cells",0,"Analyte01","Cycle 1 Day 2",8.61,"copies/ug",0,"DOSE 1",339203,"Dummy Treatment Arm A","Dummy Treatment Arm P","16/06/2022 11:10",168.9,50,"kg","cm",1.45,504
"499","XX01",25102,"Analyte01","SERUM","EVERY 3 WEEKS",1,73.5,73.5,144,144,3.61,"Analyte01","ug/mL","intravascular",35,64,"M","ASIAN",1.5,"Hours","cells",0,"Analyte01","Cycle 1 Day 4",3.61,"copies/ug",0,"DOSE 1",339203,"Dummy Treatment Arm A","Dummy Treatment Arm P","16/06/2022 11:10",168.9,50,"kg","cm",1.44,504
"500","XX01",25102,"Analyte01","SERUM","EVERY 3 WEEKS",1,167.92,167.92,336,336,1.45,"Analyte01","ug/mL","intravascular",35,64,"M","ASIAN",1.5,"Hours","cells",0,"Analyte01","Cycle 1 Day 8",1.45,"copies/ug",0,"DOSE 1",339203,"Dummy Treatment Arm A","Dummy Treatment Arm P","16/06/2022 11:10",168.9,50,"kg","cm",1.5,504
"501","XX01",25102,"Analyte01","SERUM","EVERY 3 WEEKS",1,195.18,195.18,216,216,0.968,"Analyte01","ug/mL","intravascular",35,64,"M","ASIAN",1.5,"Hours","cells",0,"Analyte01","Cycle 1 Day 9",0.968,"copies/ug",0,"DOSE 1",339203,"Dummy Treatment Arm A","Dummy Treatment Arm P","16/06/2022 11:10",168.9,50,"kg","cm",1.51,504
"502","XX01",25102,"Analyte01","SERUM","EVERY 3 WEEKS",1,336,336,672,672,0.0315,"Analyte01","ug/mL","intravascular",35,64,"M","ASIAN",1.5,"Hours","cells",0,"Analyte01","Cycle 1 Day 15",0.0315,"copies/ug",0,"DOSE 1",339203,"Dummy Treatment Arm A","Dummy Treatment Arm P","16/06/2022 11:10",168.9,50,"kg","cm",1.45,504
"503","XX01",25102,"Analyte01","SERUM","EVERY 3 WEEKS",2,504.33,0.33,0,504,0.0034,"Analyte01","ug/mL","intravascular",35,64,"M","ASIAN",1.5,"Hours","cells",0,"Analyte01","Cycle 2 Day 1",0.0034,"copies/ug",0,"DOSE 2",339203,"Dummy Treatment Arm A","Dummy Treatment Arm P","16/06/2022 11:10",168.9,50,"kg","cm",1.53,504
"504","XX01",25102,"Analyte01","SERUM","EVERY 3 WEEKS",2,505.5,1.5,0.5,504.5,5.25,"Analyte01","ug/mL","intravascular",35,64,"M","ASIAN",1,"Hours","cells",0,"Analyte01","Cycle 2 Day 1",5.25,"copies/ug",0,"DOSE 2",339203,"Dummy Treatment Arm A","Dummy Treatment Arm P","07/07/2022 15:40",168.9,50,"kg","cm",1.05,504
"505","XX01",25102,"Analyte01","SERUM","EVERY 3 WEEKS",2,530.67,26.67,48,552,7.65,"Analyte01","ug/mL","intravascular",35,64,"M","ASIAN",1,"Hours","cells",0,"Analyte01","Cycle 2 Day 2",7.65,"copies/ug",0,"DOSE 2",339203,"Dummy Treatment Arm A","Dummy Treatment Arm P","07/07/2022 15:40",168.9,50,"kg","cm",1,504
"506","XX01",25102,"Analyte01","SERUM","EVERY 3 WEEKS",2,671.83,167.83,336,840,1.88,"Analyte01","ug/mL","intravascular",35,64,"M","ASIAN",1,"Hours","cells",0,"Analyte01","Cycle 2 Day 8",1.88,"copies/ug",0,"DOSE 2",339203,"Dummy Treatment Arm A","Dummy Treatment Arm P","07/07/2022 15:40",168.9,50,"kg","cm",0.96,504
"507","XX01",25102,"Analyte01","SERUM","EVERY 3 WEEKS",2,698.65,194.65,384,888,1.42,"Analyte01","ug/mL","intravascular",35,64,"M","ASIAN",1,"Hours","cells",0,"Analyte01","Cycle 2 Day 9",1.42,"copies/ug",0,"DOSE 2",339203,"Dummy Treatment Arm A","Dummy Treatment Arm P","07/07/2022 15:40",168.9,50,"kg","cm",0.97,504
"508","XX01",25102,"Analyte01","SERUM","EVERY 3 WEEKS",3,1008.33,0.33,0,1008,0.0069,"Analyte01","ug/mL","intravascular",35,64,"M","ASIAN",1,"Hours","cells",0,"Analyte01","Cycle 3 Day 1",0.0069,"copies/ug",0,"DOSE 3",339203,"Dummy Treatment Arm A","Dummy Treatment Arm P","07/07/2022 15:40",168.9,50,"kg","cm",1,504
"509","XX01",25102,"Analyte01","SERUM","EVERY 3 WEEKS",3,1009.5,1.5,0.5,1008.5,10.2,"Analyte01","ug/mL","intravascular",35,64,"M","ASIAN",0.5,"Hours","cells",0,"Analyte01","Cycle 3 Day 1",10.2,"copies/ug",0,"DOSE 3",339203,"Dummy Treatment Arm A","Dummy Treatment Arm P","28/07/2022 10:10",168.9,50,"kg","cm",0.54,504
"510","XX01",25102,"Analyte01","SERUM","EVERY 3 WEEKS",3,1176.22,168.22,336,1344,2,"Analyte01","ug/mL","intravascular",35,64,"M","ASIAN",0.5,"Hours","cells",0,"Analyte01","Cycle 3 Day 8",2,"copies/ug",0,"DOSE 3",339203,"Dummy Treatment Arm A","Dummy Treatment Arm P","28/07/2022 10:10",168.9,50,"kg","cm",0.45,504
"511","XX01",25102,"Analyte01","SERUM","EVERY 3 WEEKS",3,1344.22,336.22,672,1680,0.147,"Analyte01","ug/mL","intravascular",35,64,"M","ASIAN",0.5,"Hours","cells",0,"Analyte01","Cycle 3 Day 15",0.147,"copies/ug",0,"DOSE 3",339203,"Dummy Treatment Arm A","Dummy Treatment Arm P","28/07/2022 10:10",168.9,50,"kg","cm",0.52,504
"512","XX01",25103,"Analyte01","SERUM","EVERY 3 WEEKS",1,-1.8,-1.8,0,0,0,"Analyte01","ug/mL","intravascular",35,46,"M","ASIAN",1.5,"Hours","cells",0,"Analyte01","Cycle 1 Day 1",0,"copies/ug",0,"DOSE 1",339203,"Dummy Treatment Arm A","Dummy Treatment Arm P","21/06/2022 12:30",180,67.1,"kg","cm",1.47,504
"513","XX01",25103,"Analyte01","SERUM","EVERY 3 WEEKS",1,1.67,1.67,0.5,0.5,10.5,"Analyte01","ug/mL","intravascular",35,46,"M","ASIAN",1.5,"Hours","cells",0,"Analyte01","Cycle 1 Day 1",10.5,"copies/ug",0,"DOSE 1",339203,"Dummy Treatment Arm A","Dummy Treatment Arm P","21/06/2022 12:30",180,67.1,"kg","cm",1.5,504
"514","XX01",25103,"Analyte01","SERUM","EVERY 3 WEEKS",1,5.47,5.47,4,4,9.15,"Analyte01","ug/mL","intravascular",35,46,"M","ASIAN",1.5,"Hours","cells",0,"Analyte01","Cycle 1 Day 1",9.15,"copies/ug",0,"DOSE 1",339203,"Dummy Treatment Arm A","Dummy Treatment Arm P","21/06/2022 12:30",180,67.1,"kg","cm",1.47,504
"515","XX01",25103,"Analyte01","SERUM","EVERY 3 WEEKS",1,10.07,10.07,8,8,9.68,"Analyte01","ug/mL","intravascular",35,46,"M","ASIAN",1.5,"Hours","cells",0,"Analyte01","Cycle 1 Day 1",9.68,"copies/ug",0,"DOSE 1",339203,"Dummy Treatment Arm A","Dummy Treatment Arm P","21/06/2022 12:30",180,67.1,"kg","cm",1.48,504
"516","XX01",25103,"Analyte01","SERUM","EVERY 3 WEEKS",1,25.08,25.08,48,48,6.32,"Analyte01","ug/mL","intravascular",35,46,"M","ASIAN",1.5,"Hours","cells",0,"Analyte01","Cycle 1 Day 2",6.32,"copies/ug",0,"DOSE 1",339203,"Dummy Treatment Arm A","Dummy Treatment Arm P","21/06/2022 12:30",180,67.1,"kg","cm",1.48,504
"517","XX01",25103,"Analyte01","SERUM","EVERY 3 WEEKS",1,73.5,73.5,144,144,3.12,"Analyte01","ug/mL","intravascular",35,46,"M","ASIAN",1.5,"Hours","cells",0,"Analyte01","Cycle 1 Day 4",3.12,"copies/ug",0,"DOSE 1",339203,"Dummy Treatment Arm A","Dummy Treatment Arm P","21/06/2022 12:30",180,67.1,"kg","cm",1.46,504
"518","XX01",25103,"Analyte01","SERUM","EVERY 3 WEEKS",1,170.82,170.82,336,336,0.603,"Analyte01","ug/mL","intravascular",35,46,"M","ASIAN",1.5,"Hours","cells",0,"Analyte01","Cycle 1 Day 8",0.603,"copies/ug",0,"DOSE 1",339203,"Dummy Treatment Arm A","Dummy Treatment Arm P","21/06/2022 12:30",180,67.1,"kg","cm",1.5,504
"519","XX01",25103,"Analyte01","SERUM","EVERY 3 WEEKS",1,338.55,338.55,672,672,0.0027,"Analyte01","ug/mL","intravascular",35,46,"M","ASIAN",1.5,"Hours","cells",0,"Analyte01","Cycle 1 Day 15",0.0027,"copies/ug",0,"DOSE 1",339203,"Dummy Treatment Arm A","Dummy Treatment Arm P","21/06/2022 12:30",180,67.1,"kg","cm",1.47,504
"520","XX01",25103,"Analyte01","SERUM","EVERY 3 WEEKS",1,503.95,503.95,NA,NA,0,"Analyte01","ug/mL","intravascular",35,46,"M","ASIAN",1.5,"Hours","cells",0,"Analyte01","Discontinuation Visit",0,"copies/ug",0,"DOSE 1",339203,"Dummy Treatment Arm A","Dummy Treatment Arm P","21/06/2022 12:30",180,67.1,"kg","cm",1.47,504
"521","XX01",25104,"Analyte01","SERUM","EVERY 3 WEEKS",1,-2.994285714,-2.994285714,0,0,0,"Analyte01","ug/mL","intravascular",35,67,"M","WHITE",1.53,"Hours","cells",0,"Analyte01","Cycle 1 Day 1",0,"copies/ug",0,"DOSE 1",339203,"Dummy Treatment Arm A","Dummy Treatment Arm P","19/07/2022 12:37",165,71.9,"kg","cm",1.52,504
"522","XX01",25104,"Analyte01","SERUM","EVERY 3 WEEKS",1,1.765714286,1.765714286,0.5,0.5,14.4,"Analyte01","ug/mL","intravascular",35,67,"M","WHITE",1.53,"Hours","cells",0,"Analyte01","Cycle 1 Day 1",14.4,"copies/ug",0,"DOSE 1",339203,"Dummy Treatment Arm A","Dummy Treatment Arm P","19/07/2022 12:37",165,71.9,"kg","cm",1.49,504
"523","XX01",25104,"Analyte01","SERUM","EVERY 3 WEEKS",1,5.515714286,5.515714286,4,4,17.5,"Analyte01","ug/mL","intravascular",35,67,"M","WHITE",1.53,"Hours","cells",0,"Analyte01","Cycle 1 Day 1",17.5,"copies/ug",0,"DOSE 1",339203,"Dummy Treatment Arm A","Dummy Treatment Arm P","19/07/2022 12:37",165,71.9,"kg","cm",1.53,504
"524","XX01",25104,"Analyte01","SERUM","EVERY 3 WEEKS",1,9.765714286,9.765714286,8,8,14.2,"Analyte01","ug/mL","intravascular",35,67,"M","WHITE",1.53,"Hours","cells",0,"Analyte01","Cycle 1 Day 1",14.2,"copies/ug",0,"DOSE 1",339203,"Dummy Treatment Arm A","Dummy Treatment Arm P","19/07/2022 12:37",165,71.9,"kg","cm",1.53,504
"525","XX01",25104,"Analyte01","SERUM","EVERY 3 WEEKS",1,27.60571429,27.60571429,48,48,8.16,"Analyte01","ug/mL","intravascular",35,67,"M","WHITE",1.53,"Hours","cells",0,"Analyte01","Cycle 1 Day 2",8.16,"copies/ug",0,"DOSE 1",339203,"Dummy Treatment Arm A","Dummy Treatment Arm P","19/07/2022 12:37",165,71.9,"kg","cm",1.54,504
"526","XX01",25104,"Analyte01","SERUM","EVERY 3 WEEKS",1,71.60571429,71.60571429,144,144,4.51,"Analyte01","ug/mL","intravascular",35,67,"M","WHITE",1.53,"Hours","cells",0,"Analyte01","Cycle 1 Day 4",4.51,"copies/ug",0,"DOSE 1",339203,"Dummy Treatment Arm A","Dummy Treatment Arm P","19/07/2022 12:37",165,71.9,"kg","cm",1.52,504
"527","XX01",25104,"Analyte01","SERUM","EVERY 3 WEEKS",1,165.9157143,165.9157143,336,336,1.28,"Analyte01","ug/mL","intravascular",35,67,"M","WHITE",1.53,"Hours","cells",0,"Analyte01","Cycle 1 Day 8",1.28,"copies/ug",0,"DOSE 1",339203,"Dummy Treatment Arm A","Dummy Treatment Arm P","19/07/2022 12:37",165,71.9,"kg","cm",1.55,504
"528","XX01",25104,"Analyte01","SERUM","EVERY 3 WEEKS",1,333.3857143,333.3857143,672,672,0.0187,"Analyte01","ug/mL","intravascular",35,67,"M","WHITE",1.53,"Hours","cells",0,"Analyte01","Cycle 1 Day 15",0.0187,"copies/ug",0,"DOSE 1",339203,"Dummy Treatment Arm A","Dummy Treatment Arm P","19/07/2022 12:37",165,71.9,"kg","cm",1.53,504
"529","XX01",25104,"Analyte01","SERUM","EVERY 3 WEEKS",2,503.1357143,-0.864285714,0,504,0.002,"Analyte01","ug/mL","intravascular",35,67,"M","WHITE",1.53,"Hours","cells",0,"Analyte01","Cycle 2 Day 1",0.002,"copies/ug",0,"DOSE 2",339203,"Dummy Treatment Arm A","Dummy Treatment Arm P","19/07/2022 12:37",165,71.9,"kg","cm",1.55,504
"530","XX01",25104,"Analyte01","SERUM","EVERY 3 WEEKS",2,505.6557143,1.655714286,0.5,504.5,12.1,"Analyte01","ug/mL","intravascular",35,67,"M","WHITE",1.52,"Hours","cells",0,"Analyte01","Cycle 2 Day 1",12.1,"copies/ug",0,"DOSE 2",339203,"Dummy Treatment Arm A","Dummy Treatment Arm P","09/08/2022 14:06",165,71.9,"kg","cm",1.5,504
"531","XX01",25104,"Analyte01","SERUM","EVERY 3 WEEKS",2,527.8157143,23.81571429,48,552,9.64,"Analyte01","ug/mL","intravascular",35,67,"M","WHITE",1.52,"Hours","cells",0,"Analyte01","Cycle 2 Day 2",9.64,"copies/ug",0,"DOSE 2",339203,"Dummy Treatment Arm A","Dummy Treatment Arm P","09/08/2022 14:06",165,71.9,"kg","cm",1.51,504
"532","XX01",25104,"Analyte01","SERUM","EVERY 3 WEEKS",2,677.0157143,173.0157143,336,840,1.65,"Analyte01","ug/mL","intravascular",35,67,"M","WHITE",1.52,"Hours","cells",0,"Analyte01","Cycle 2 Day 8",1.65,"copies/ug",0,"DOSE 2",339203,"Dummy Treatment Arm A","Dummy Treatment Arm P","09/08/2022 14:06",165,71.9,"kg","cm",1.5,504
"533","XX01",25104,"Analyte01","SERUM","EVERY 3 WEEKS",2,699.0057143,195.0057143,384,888,1.21,"Analyte01","ug/mL","intravascular",35,67,"M","WHITE",1.52,"Hours","cells",0,"Analyte01","Cycle 2 Day 9",1.21,"copies/ug",0,"DOSE 2",339203,"Dummy Treatment Arm A","Dummy Treatment Arm P","09/08/2022 14:06",165,71.9,"kg","cm",1.47,504
"534","XX01",25201,"Analyte01","SERUM","EVERY 3 WEEKS",1,-0.438333333,-0.438333333,0,0,0,"Analyte01","ug/mL","intravascular",35,51,"M","WHITE",1.53,"Hours","cells",0,"Analyte01","Cycle 1 Day 1",0,"copies/ug",0,"DOSE 1",339203,"Dummy Treatment Arm A","Dummy Treatment Arm P","23/08/2022 11:59",176.5,81.6,"kg","cm",1.52,504
"535","XX01",25201,"Analyte01","SERUM","EVERY 3 WEEKS",1,1.581666667,1.581666667,0.5,0.5,6.3,"Analyte01","ug/mL","intravascular",35,51,"M","WHITE",1.53,"Hours","cells",0,"Analyte01","Cycle 1 Day 1",6.3,"copies/ug",0,"DOSE 1",339203,"Dummy Treatment Arm A","Dummy Treatment Arm P","23/08/2022 11:59",176.5,81.6,"kg","cm",1.56,504
"536","XX01",25201,"Analyte01","SERUM","EVERY 3 WEEKS",1,4.631666667,4.631666667,4,4,7.16,"Analyte01","ug/mL","intravascular",35,51,"M","WHITE",1.53,"Hours","cells",0,"Analyte01","Cycle 1 Day 1",7.16,"copies/ug",0,"DOSE 1",339203,"Dummy Treatment Arm A","Dummy Treatment Arm P","23/08/2022 11:59",176.5,81.6,"kg","cm",1.49,504
"537","XX01",25201,"Analyte01","SERUM","EVERY 3 WEEKS",1,7.961666667,7.961666667,8,8,5.83,"Analyte01","ug/mL","intravascular",35,51,"M","WHITE",1.53,"Hours","cells",0,"Analyte01","Cycle 1 Day 1",5.83,"copies/ug",0,"DOSE 1",339203,"Dummy Treatment Arm A","Dummy Treatment Arm P","23/08/2022 11:59",176.5,81.6,"kg","cm",1.58,504
"538","XX01",25201,"Analyte01","SERUM","EVERY 3 WEEKS",1,25.30166667,25.30166667,48,48,4.28,"Analyte01","ug/mL","intravascular",35,51,"M","WHITE",1.53,"Hours","cells",0,"Analyte01","Cycle 1 Day 2",4.28,"copies/ug",0,"DOSE 1",339203,"Dummy Treatment Arm A","Dummy Treatment Arm P","23/08/2022 11:59",176.5,81.6,"kg","cm",1.53,504
"539","XX01",25201,"Analyte01","SERUM","EVERY 3 WEEKS",1,75.68166667,75.68166667,144,144,1.95,"Analyte01","ug/mL","intravascular",35,51,"M","WHITE",1.53,"Hours","cells",0,"Analyte01","Cycle 1 Day 4",1.95,"copies/ug",0,"DOSE 1",339203,"Dummy Treatment Arm A","Dummy Treatment Arm P","23/08/2022 11:59",176.5,81.6,"kg","cm",1.54,504
"540","XX01",25201,"Analyte01","SERUM","EVERY 3 WEEKS",1,171.7016667,171.7016667,336,336,0.258,"Analyte01","ug/mL","intravascular",35,51,"M","WHITE",1.53,"Hours","cells",0,"Analyte01","Cycle 1 Day 8",0.258,"copies/ug",0,"DOSE 1",339203,"Dummy Treatment Arm A","Dummy Treatment Arm P","23/08/2022 11:59",176.5,81.6,"kg","cm",1.5,504
