"DOMAIN","STUDYID","USUBJID","PCTEST","PCSPEC","PCSTRESN","PCSTRESU","PCDTC","PCRFTDTC","PCELTM","VOLUME","VOLUMEU"
"PC","S1","S1-01","DrugA","SERUM",0,"ug/mL","2024-01-15T07:54:57","2024-01-15T08:00:00","PT-0.083H",NA,NA
"PC","S1","S1-01","DrugA","SERUM",0.483,"ug/mL","2024-01-15T08:22:48","2024-01-15T08:00:00","PT0.5H",NA,NA
"PC","S1","S1-01","DrugA","SERUM",2.01,"ug/mL","2024-01-15T09:27:57","2024-01-15T08:00:00","PT1.5H",NA,NA
"PC","S1","S1-01","DrugA","SERUM",2.197,"ug/mL","2024-01-15T09:33:54","2024-01-15T08:00:00","PT1.5H",NA,NA
"PC","S1","S1-01","DrugA","SERUM",3.891,"ug/mL","2024-01-15T11:03:28","2024-01-15T08:00:00","PT3H",NA,NA
"PC","S1","S1-01","DrugA","SERUM",1.926,"ug/mL","2024-01-15T12:30:43","2024-01-15T08:00:00","PT4.5H",NA,NA
"PC","S1","S1-01","DrugA","SERUM",0.985,"ug/mL","2024-01-15T13:57:07","2024-01-15T08:00:00","PT6H",NA,NA
"PC","S1","S1-01","DrugA","SERUM",0.53,"ug/mL","2024-01-15T15:31:44","2024-01-15T08:00:00","PT7.5H",NA,NA
"PC","S1","S1-01","DrugA","SERUM",0.108,"ug/mL","2024-01-15T19:52:40","2024-01-15T08:00:00","PT12H",NA,NA
"PC","S1","S1-01","DrugA","SERUM",0.02,"ug/mL","2024-01-16T07:56:06","2024-01-16T08:01:04","PT-0.083H",NA,NA
"PC","S1","S1-01","DrugA","SERUM",0.742,"ug/mL","2024-01-16T08:32:49","2024-01-16T08:01:04","PT0.5H",NA,NA
"PC","S1","S1-01","DrugA","SERUM",1.85,"ug/mL","2024-01-16T09:30:07","2024-01-16T08:01:04","PT1.5H",NA,NA
"PC","S1","S1-01","DrugA","SERUM",2.102,"ug/mL","2024-01-16T09:35:34","2024-01-16T08:01:04","PT1.5H",NA,NA
"PC","S1","S1-01","DrugA","SERUM",4.126,"ug/mL","2024-01-16T11:00:54","2024-01-16T08:01:04","PT3H",NA,NA
"PC","S1","S1-01","DrugA","SERUM",2.201,"ug/mL","2024-01-16T12:24:03","2024-01-16T08:01:04","PT4.5H",NA,NA
"PC","S1","S1-01","DrugA","SERUM",0.948,"ug/mL","2024-01-16T14:01:12","2024-01-16T08:01:04","PT6H",NA,NA
"PC","S1","S1-01","DrugA","SERUM",0.394,"ug/mL","2024-01-16T15:37:08","2024-01-16T08:01:04","PT7.5H",NA,NA
"PC","S1","S1-01","DrugA","SERUM",0.028,"ug/mL","2024-01-16T20:00:03","2024-01-16T08:01:04","PT12H",NA,NA
"PC","S1","S1-01","DrugA","SERUM",0.067,"ug/mL","2024-01-17T07:49:51","2024-01-17T07:54:57","PT-0.083H",NA,NA
"PC","S1","S1-01","DrugA","SERUM",0.741,"ug/mL","2024-01-17T08:26:06","2024-01-17T07:54:57","PT0.5H",NA,NA
"PC","S1","S1-01","DrugA","SERUM",2.034,"ug/mL","2024-01-17T09:25:08","2024-01-17T07:54:57","PT1.5H",NA,NA
"PC","S1","S1-01","DrugA","SERUM",2.187,"ug/mL","2024-01-17T09:27:25","2024-01-17T07:54:57","PT1.5H",NA,NA
"PC","S1","S1-01","DrugA","SERUM",3.854,"ug/mL","2024-01-17T10:48:36","2024-01-17T07:54:57","PT3H",NA,NA
"PC","S1","S1-01","DrugA","SERUM",1.746,"ug/mL","2024-01-17T12:27:50","2024-01-17T07:54:57","PT4.5H",NA,NA
"PC","S1","S1-01","DrugA","SERUM",0.965,"ug/mL","2024-01-17T13:53:45","2024-01-17T07:54:57","PT6H",NA,NA
"PC","S1","S1-01","DrugA","SERUM",0.417,"ug/mL","2024-01-17T15:19:04","2024-01-17T07:54:57","PT7.5H",NA,NA
"PC","S1","S1-01","DrugA","SERUM",0,"ug/mL","2024-01-17T19:57:07","2024-01-17T07:54:57","PT12H",NA,NA
"PC","S1","S1-01","DrugA","SERUM",0,"ug/mL","2024-01-18T08:04:33","2024-01-18T08:09:36","PT-0.083H",NA,NA
"PC","S1","S1-01","DrugA","SERUM",0.542,"ug/mL","2024-01-18T08:38:20","2024-01-18T08:09:36","PT0.5H",NA,NA
"PC","S1","S1-01","DrugA","SERUM",1.811,"ug/mL","2024-01-18T09:34:01","2024-01-18T08:09:36","PT1.5H",NA,NA
"PC","S1","S1-01","DrugA","SERUM",1.909,"ug/mL","2024-01-18T09:37:51","2024-01-18T08:09:36","PT1.5H",NA,NA
"PC","S1","S1-01","DrugA","SERUM",3.972,"ug/mL","2024-01-18T11:10:37","2024-01-18T08:09:36","PT3H",NA,NA
"PC","S1","S1-01","DrugA","SERUM",2.048,"ug/mL","2024-01-18T12:37:48","2024-01-18T08:09:36","PT4.5H",NA,NA
"PC","S1","S1-01","DrugA","SERUM",0.92,"ug/mL","2024-01-18T14:10:19","2024-01-18T08:09:36","PT6H",NA,NA
"PC","S1","S1-01","DrugA","SERUM",0.509,"ug/mL","2024-01-18T15:36:07","2024-01-18T08:09:36","PT7.5H",NA,NA
"PC","S1","S1-01","DrugA","SERUM",0.057,"ug/mL","2024-01-18T20:07:37","2024-01-18T08:09:36","PT12H",NA,NA
"PC","S1","S1-01","DrugA","SERUM",0,"ug/mL","2024-01-19T07:57:03","2024-01-19T08:01:58","PT-0.083H",NA,NA
"PC","S1","S1-01","DrugA","SERUM",0.719,"ug/mL","2024-01-19T08:34:51","2024-01-19T08:01:58","PT0.5H",NA,NA
"PC","S1","S1-01","DrugA","SERUM",2.024,"ug/mL","2024-01-19T09:33:25","2024-01-19T08:01:58","PT1.5H",NA,NA
"PC","S1","S1-01","DrugA","SERUM",2.119,"ug/mL","2024-01-19T09:33:36","2024-01-19T08:01:58","PT1.5H",NA,NA
"PC","S1","S1-01","DrugA","SERUM",3.797,"ug/mL","2024-01-19T10:56:16","2024-01-19T08:01:58","PT3H",NA,NA
"PC","S1","S1-01","DrugA","SERUM",1.902,"ug/mL","2024-01-19T12:29:42","2024-01-19T08:01:58","PT4.5H",NA,NA
"PC","S1","S1-01","DrugA","SERUM",0.954,"ug/mL","2024-01-19T14:00:43","2024-01-19T08:01:58","PT6H",NA,NA
"PC","S1","S1-01","DrugA","SERUM",0.33,"ug/mL","2024-01-19T15:27:50","2024-01-19T08:01:58","PT7.5H",NA,NA
"PC","S1","S1-01","DrugA","SERUM",0.152,"ug/mL","2024-01-19T20:01:51","2024-01-19T08:01:58","PT12H",NA,NA
"PC","S1","S1-01","DrugA","SERUM",0.057,"ug/mL","2024-01-20T07:50:02","2024-01-20T07:55:04","PT-0.083H",NA,NA
"PC","S1","S1-01","DrugA","SERUM",0.602,"ug/mL","2024-01-20T08:23:56","2024-01-20T07:55:04","PT0.5H",NA,NA
"PC","S1","S1-01","DrugA","SERUM",1.749,"ug/mL","2024-01-20T09:20:31","2024-01-20T07:55:04","PT1.5H",NA,NA
"PC","S1","S1-01","DrugA","SERUM",1.808,"ug/mL","2024-01-20T09:26:27","2024-01-20T07:55:04","PT1.5H",NA,NA
"PC","S1","S1-01","DrugA","SERUM",3.799,"ug/mL","2024-01-20T10:52:37","2024-01-20T07:55:04","PT3H",NA,NA
"PC","S1","S1-01","DrugA","SERUM",1.981,"ug/mL","2024-01-20T12:20:24","2024-01-20T07:55:04","PT4.5H",NA,NA
"PC","S1","S1-01","DrugA","SERUM",0.791,"ug/mL","2024-01-20T13:56:13","2024-01-20T07:55:04","PT6H",NA,NA
"PC","S1","S1-01","DrugA","SERUM",0.532,"ug/mL","2024-01-20T15:25:33","2024-01-20T07:55:04","PT7.5H",NA,NA
"PC","S1","S1-01","DrugA","SERUM",0.069,"ug/mL","2024-01-20T19:50:16","2024-01-20T07:55:04","PT12H",NA,NA
"PC","S1","S1-01","DrugA","SERUM",0.02,"ug/mL","2024-01-21T07:57:57","2024-01-21T08:02:56","PT-0.083H",NA,NA
"PC","S1","S1-01","DrugA","SERUM",0.626,"ug/mL","2024-01-21T08:32:06","2024-01-21T08:02:56","PT0.5H",NA,NA
"PC","S1","S1-01","DrugA","SERUM",1.902,"ug/mL","2024-01-21T09:31:51","2024-01-21T08:02:56","PT1.5H",NA,NA
"PC","S1","S1-01","DrugA","SERUM",2.074,"ug/mL","2024-01-21T09:33:50","2024-01-21T08:02:56","PT1.5H",NA,NA
"PC","S1","S1-01","DrugA","SERUM",3.852,"ug/mL","2024-01-21T11:06:54","2024-01-21T08:02:56","PT3H",NA,NA
"PC","S1","S1-01","DrugA","SERUM",1.975,"ug/mL","2024-01-21T12:28:33","2024-01-21T08:02:56","PT4.5H",NA,NA
"PC","S1","S1-01","DrugA","SERUM",0.818,"ug/mL","2024-01-21T14:01:51","2024-01-21T08:02:56","PT6H",NA,NA
"PC","S1","S1-01","DrugA","SERUM",0.48,"ug/mL","2024-01-21T15:37:40","2024-01-21T08:02:56","PT7.5H",NA,NA
"PC","S1","S1-01","DrugA","SERUM",0.048,"ug/mL","2024-01-21T20:05:27","2024-01-21T08:02:56","PT12H",NA,NA
"PC","S1","S1-01","DrugA","SERUM",0.106,"ug/mL","2024-01-22T07:59:24","2024-01-22T08:04:26","PT-0.083H",NA,NA
"PC","S1","S1-01","DrugA","SERUM",0.809,"ug/mL","2024-01-22T08:37:01","2024-01-22T08:04:26","PT0.5H",NA,NA
"PC","S1","S1-01","DrugA","SERUM",1.926,"ug/mL","2024-01-22T09:29:49","2024-01-22T08:04:26","PT1.5H",NA,NA
"PC","S1","S1-01","DrugA","SERUM",1.963,"ug/mL","2024-01-22T09:34:58","2024-01-22T08:04:26","PT1.5H",NA,NA
"PC","S1","S1-01","DrugA","SERUM",3.747,"ug/mL","2024-01-22T11:06:18","2024-01-22T08:04:26","PT3H",NA,NA
"PC","S1","S1-01","DrugA","SERUM",1.896,"ug/mL","2024-01-22T12:34:37","2024-01-22T08:04:26","PT4.5H",NA,NA
"PC","S1","S1-01","DrugA","SERUM",0.869,"ug/mL","2024-01-22T14:08:02","2024-01-22T08:04:26","PT6H",NA,NA
"PC","S1","S1-01","DrugA","SERUM",0.314,"ug/mL","2024-01-22T15:39:28","2024-01-22T08:04:26","PT7.5H",NA,NA
"PC","S1","S1-01","DrugA","SERUM",0.04,"ug/mL","2024-01-22T19:58:51","2024-01-22T08:04:26","PT12H",NA,NA
"PC","S1","S1-01","DrugA","URINE",0.483,"mg/mL","2024-01-15T08:22:48","2024-01-15T08:00:00","PT0.5H",95,"mL"
"PC","S1","S1-01","DrugA","URINE",3.891,"mg/mL","2024-01-15T11:03:28","2024-01-15T08:00:00","PT3H",100,"mL"
"PC","S1","S1-01","DrugA","URINE",0.985,"mg/mL","2024-01-15T13:57:07","2024-01-15T08:00:00","PT6H",104,"mL"
"PC","S1","S1-01","DrugA","URINE",0.108,"mg/mL","2024-01-15T19:52:40","2024-01-15T08:00:00","PT12H",107,"mL"
"PC","S1","S1-01","DrugA","URINE",0.742,"mg/mL","2024-01-16T08:32:49","2024-01-16T08:01:04","PT0.5H",96,"mL"
"PC","S1","S1-01","DrugA","URINE",4.126,"mg/mL","2024-01-16T11:00:54","2024-01-16T08:01:04","PT3H",99,"mL"
"PC","S1","S1-01","DrugA","URINE",0.948,"mg/mL","2024-01-16T14:01:12","2024-01-16T08:01:04","PT6H",117,"mL"
"PC","S1","S1-01","DrugA","URINE",0.028,"mg/mL","2024-01-16T20:00:03","2024-01-16T08:01:04","PT12H",124,"mL"
"PC","S1","S1-01","DrugA","URINE",0.741,"mg/mL","2024-01-17T08:26:06","2024-01-17T07:54:57","PT0.5H",88,"mL"
"PC","S1","S1-01","DrugA","URINE",3.854,"mg/mL","2024-01-17T10:48:36","2024-01-17T07:54:57","PT3H",107,"mL"
"PC","S1","S1-01","DrugA","URINE",0.965,"mg/mL","2024-01-17T13:53:45","2024-01-17T07:54:57","PT6H",100,"mL"
"PC","S1","S1-01","DrugA","URINE",0,"mg/mL","2024-01-17T19:57:07","2024-01-17T07:54:57","PT12H",120,"mL"
"PC","S1","S1-01","DrugA","URINE",0.542,"mg/mL","2024-01-18T08:38:20","2024-01-18T08:09:36","PT0.5H",114,"mL"
"PC","S1","S1-01","DrugA","URINE",3.972,"mg/mL","2024-01-18T11:10:37","2024-01-18T08:09:36","PT3H",116,"mL"
"PC","S1","S1-01","DrugA","URINE",0.92,"mg/mL","2024-01-18T14:10:19","2024-01-18T08:09:36","PT6H",95,"mL"
"PC","S1","S1-01","DrugA","URINE",0.057,"mg/mL","2024-01-18T20:07:37","2024-01-18T08:09:36","PT12H",116,"mL"
"PC","S1","S1-01","DrugA","URINE",0.719,"mg/mL","2024-01-19T08:34:51","2024-01-19T08:01:58","PT0.5H",111,"mL"
"PC","S1","S1-01","DrugA","URINE",3.797,"mg/mL","2024-01-19T10:56:16","2024-01-19T08:01:58","PT3H",81,"mL"
"PC","S1","S1-01","DrugA","URINE",0.954,"mg/mL","2024-01-19T14:00:43","2024-01-19T08:01:58","PT6H",86,"mL"
"PC","S1","S1-01","DrugA","URINE",0.152,"mg/mL","2024-01-19T20:01:51","2024-01-19T08:01:58","PT12H",121,"mL"
"PC","S1","S1-01","DrugA","URINE",0.602,"mg/mL","2024-01-20T08:23:56","2024-01-20T07:55:04","PT0.5H",93,"mL"
"PC","S1","S1-01","DrugA","URINE",3.799,"mg/mL","2024-01-20T10:52:37","2024-01-20T07:55:04","PT3H",120,"mL"
"PC","S1","S1-01","DrugA","URINE",0.791,"mg/mL","2024-01-20T13:56:13","2024-01-20T07:55:04","PT6H",110,"mL"
"PC","S1","S1-01","DrugA","URINE",0.069,"mg/mL","2024-01-20T19:50:16","2024-01-20T07:55:04","PT12H",84,"mL"
"PC","S1","S1-01","DrugA","URINE",0.626,"mg/mL","2024-01-21T08:32:06","2024-01-21T08:02:56","PT0.5H",92,"mL"
"PC","S1","S1-01","DrugA","URINE",3.852,"mg/mL","2024-01-21T11:06:54","2024-01-21T08:02:56","PT3H",81,"mL"
"PC","S1","S1-01","DrugA","URINE",0.818,"mg/mL","2024-01-21T14:01:51","2024-01-21T08:02:56","PT6H",103,"mL"
"PC","S1","S1-01","DrugA","URINE",0.048,"mg/mL","2024-01-21T20:05:27","2024-01-21T08:02:56","PT12H",47,"mL"
"PC","S1","S1-01","DrugA","URINE",0.809,"mg/mL","2024-01-22T08:37:01","2024-01-22T08:04:26","PT0.5H",118,"mL"
"PC","S1","S1-01","DrugA","URINE",3.747,"mg/mL","2024-01-22T11:06:18","2024-01-22T08:04:26","PT3H",104,"mL"
"PC","S1","S1-01","DrugA","URINE",0.869,"mg/mL","2024-01-22T14:08:02","2024-01-22T08:04:26","PT6H",112,"mL"
"PC","S1","S1-01","DrugA","URINE",0.04,"mg/mL","2024-01-22T19:58:51","2024-01-22T08:04:26","PT12H",97,"mL"
"PC","S1","S1-01","Metab-DrugA","SERUM",0,"ug/mL","2024-01-15T07:54:57","2024-01-15T08:00:00","PT-0.083H",NA,NA
"PC","S1","S1-01","Metab-DrugA","SERUM",0.149,"ug/mL","2024-01-15T08:22:48","2024-01-15T08:00:00","PT0.5H",NA,NA
"PC","S1","S1-01","Metab-DrugA","SERUM",0.733,"ug/mL","2024-01-15T09:27:57","2024-01-15T08:00:00","PT1.5H",NA,NA
"PC","S1","S1-01","Metab-DrugA","SERUM",0.869,"ug/mL","2024-01-15T09:33:54","2024-01-15T08:00:00","PT1.5H",NA,NA
"PC","S1","S1-01","Metab-DrugA","SERUM",1.541,"ug/mL","2024-01-15T11:03:28","2024-01-15T08:00:00","PT3H",NA,NA
"PC","S1","S1-01","Metab-DrugA","SERUM",0.758,"ug/mL","2024-01-15T12:30:43","2024-01-15T08:00:00","PT4.5H",NA,NA
"PC","S1","S1-01","Metab-DrugA","SERUM",0.45,"ug/mL","2024-01-15T13:57:07","2024-01-15T08:00:00","PT6H",NA,NA
"PC","S1","S1-01","Metab-DrugA","SERUM",0.084,"ug/mL","2024-01-15T15:31:44","2024-01-15T08:00:00","PT7.5H",NA,NA
"PC","S1","S1-01","Metab-DrugA","SERUM",0.01,"ug/mL","2024-01-15T19:52:40","2024-01-15T08:00:00","PT12H",NA,NA
"PC","S1","S1-01","Metab-DrugA","SERUM",0.043,"ug/mL","2024-01-16T07:56:06","2024-01-16T08:01:04","PT-0.083H",NA,NA
"PC","S1","S1-01","Metab-DrugA","SERUM",0.328,"ug/mL","2024-01-16T08:32:49","2024-01-16T08:01:04","PT0.5H",NA,NA
"PC","S1","S1-01","Metab-DrugA","SERUM",0.73,"ug/mL","2024-01-16T09:30:07","2024-01-16T08:01:04","PT1.5H",NA,NA
"PC","S1","S1-01","Metab-DrugA","SERUM",0.809,"ug/mL","2024-01-16T09:35:34","2024-01-16T08:01:04","PT1.5H",NA,NA
"PC","S1","S1-01","Metab-DrugA","SERUM",1.618,"ug/mL","2024-01-16T11:00:54","2024-01-16T08:01:04","PT3H",NA,NA
"PC","S1","S1-01","Metab-DrugA","SERUM",0.786,"ug/mL","2024-01-16T12:24:03","2024-01-16T08:01:04","PT4.5H",NA,NA
"PC","S1","S1-01","Metab-DrugA","SERUM",0.359,"ug/mL","2024-01-16T14:01:12","2024-01-16T08:01:04","PT6H",NA,NA
"PC","S1","S1-01","Metab-DrugA","SERUM",0.103,"ug/mL","2024-01-16T15:37:08","2024-01-16T08:01:04","PT7.5H",NA,NA
"PC","S1","S1-01","Metab-DrugA","SERUM",0,"ug/mL","2024-01-16T20:00:03","2024-01-16T08:01:04","PT12H",NA,NA
"PC","S1","S1-01","Metab-DrugA","SERUM",0.047,"ug/mL","2024-01-17T07:49:51","2024-01-17T07:54:57","PT-0.083H",NA,NA
"PC","S1","S1-01","Metab-DrugA","SERUM",0.256,"ug/mL","2024-01-17T08:26:06","2024-01-17T07:54:57","PT0.5H",NA,NA
"PC","S1","S1-01","Metab-DrugA","SERUM",0.751,"ug/mL","2024-01-17T09:25:08","2024-01-17T07:54:57","PT1.5H",NA,NA
"PC","S1","S1-01","Metab-DrugA","SERUM",0.767,"ug/mL","2024-01-17T09:27:25","2024-01-17T07:54:57","PT1.5H",NA,NA
"PC","S1","S1-01","Metab-DrugA","SERUM",1.541,"ug/mL","2024-01-17T10:48:36","2024-01-17T07:54:57","PT3H",NA,NA
"PC","S1","S1-01","Metab-DrugA","SERUM",0.809,"ug/mL","2024-01-17T12:27:50","2024-01-17T07:54:57","PT4.5H",NA,NA
"PC","S1","S1-01","Metab-DrugA","SERUM",0.327,"ug/mL","2024-01-17T13:53:45","2024-01-17T07:54:57","PT6H",NA,NA
"PC","S1","S1-01","Metab-DrugA","SERUM",0.13,"ug/mL","2024-01-17T15:19:04","2024-01-17T07:54:57","PT7.5H",NA,NA
"PC","S1","S1-01","Metab-DrugA","SERUM",0.146,"ug/mL","2024-01-17T19:57:07","2024-01-17T07:54:57","PT12H",NA,NA
"PC","S1","S1-01","Metab-DrugA","SERUM",0,"ug/mL","2024-01-18T08:04:33","2024-01-18T08:09:36","PT-0.083H",NA,NA
"PC","S1","S1-01","Metab-DrugA","SERUM",0.235,"ug/mL","2024-01-18T08:38:20","2024-01-18T08:09:36","PT0.5H",NA,NA
"PC","S1","S1-01","Metab-DrugA","SERUM",0.746,"ug/mL","2024-01-18T09:34:01","2024-01-18T08:09:36","PT1.5H",NA,NA
"PC","S1","S1-01","Metab-DrugA","SERUM",0.75,"ug/mL","2024-01-18T09:37:51","2024-01-18T08:09:36","PT1.5H",NA,NA
"PC","S1","S1-01","Metab-DrugA","SERUM",1.621,"ug/mL","2024-01-18T11:10:37","2024-01-18T08:09:36","PT3H",NA,NA
"PC","S1","S1-01","Metab-DrugA","SERUM",0.855,"ug/mL","2024-01-18T12:37:48","2024-01-18T08:09:36","PT4.5H",NA,NA
"PC","S1","S1-01","Metab-DrugA","SERUM",0.367,"ug/mL","2024-01-18T14:10:19","2024-01-18T08:09:36","PT6H",NA,NA
"PC","S1","S1-01","Metab-DrugA","SERUM",0.146,"ug/mL","2024-01-18T15:36:07","2024-01-18T08:09:36","PT7.5H",NA,NA
"PC","S1","S1-01","Metab-DrugA","SERUM",0.045,"ug/mL","2024-01-18T20:07:37","2024-01-18T08:09:36","PT12H",NA,NA
"PC","S1","S1-01","Metab-DrugA","SERUM",0,"ug/mL","2024-01-19T07:57:03","2024-01-19T08:01:58","PT-0.083H",NA,NA
"PC","S1","S1-01","Metab-DrugA","SERUM",0.22,"ug/mL","2024-01-19T08:34:51","2024-01-19T08:01:58","PT0.5H",NA,NA
"PC","S1","S1-01","Metab-DrugA","SERUM",0.844,"ug/mL","2024-01-19T09:33:25","2024-01-19T08:01:58","PT1.5H",NA,NA
"PC","S1","S1-01","Metab-DrugA","SERUM",0.855,"ug/mL","2024-01-19T09:33:36","2024-01-19T08:01:58","PT1.5H",NA,NA
"PC","S1","S1-01","Metab-DrugA","SERUM",1.522,"ug/mL","2024-01-19T10:56:16","2024-01-19T08:01:58","PT3H",NA,NA
"PC","S1","S1-01","Metab-DrugA","SERUM",0.789,"ug/mL","2024-01-19T12:29:42","2024-01-19T08:01:58","PT4.5H",NA,NA
"PC","S1","S1-01","Metab-DrugA","SERUM",0.257,"ug/mL","2024-01-19T14:00:43","2024-01-19T08:01:58","PT6H",NA,NA
"PC","S1","S1-01","Metab-DrugA","SERUM",0.196,"ug/mL","2024-01-19T15:27:50","2024-01-19T08:01:58","PT7.5H",NA,NA
"PC","S1","S1-01","Metab-DrugA","SERUM",0.025,"ug/mL","2024-01-19T20:01:51","2024-01-19T08:01:58","PT12H",NA,NA
"PC","S1","S1-01","Metab-DrugA","SERUM",0.05,"ug/mL","2024-01-20T07:50:02","2024-01-20T07:55:04","PT-0.083H",NA,NA
"PC","S1","S1-01","Metab-DrugA","SERUM",0.276,"ug/mL","2024-01-20T08:23:56","2024-01-20T07:55:04","PT0.5H",NA,NA
"PC","S1","S1-01","Metab-DrugA","SERUM",0.723,"ug/mL","2024-01-20T09:20:31","2024-01-20T07:55:04","PT1.5H",NA,NA
"PC","S1","S1-01","Metab-DrugA","SERUM",0.763,"ug/mL","2024-01-20T09:26:27","2024-01-20T07:55:04","PT1.5H",NA,NA
"PC","S1","S1-01","Metab-DrugA","SERUM",1.405,"ug/mL","2024-01-20T10:52:37","2024-01-20T07:55:04","PT3H",NA,NA
"PC","S1","S1-01","Metab-DrugA","SERUM",0.743,"ug/mL","2024-01-20T12:20:24","2024-01-20T07:55:04","PT4.5H",NA,NA
"PC","S1","S1-01","Metab-DrugA","SERUM",0.37,"ug/mL","2024-01-20T13:56:13","2024-01-20T07:55:04","PT6H",NA,NA
"PC","S1","S1-01","Metab-DrugA","SERUM",0.147,"ug/mL","2024-01-20T15:25:33","2024-01-20T07:55:04","PT7.5H",NA,NA
"PC","S1","S1-01","Metab-DrugA","SERUM",0.034,"ug/mL","2024-01-20T19:50:16","2024-01-20T07:55:04","PT12H",NA,NA
"PC","S1","S1-01","Metab-DrugA","SERUM",0.032,"ug/mL","2024-01-21T07:57:57","2024-01-21T08:02:56","PT-0.083H",NA,NA
"PC","S1","S1-01","Metab-DrugA","SERUM",0.226,"ug/mL","2024-01-21T08:32:06","2024-01-21T08:02:56","PT0.5H",NA,NA
"PC","S1","S1-01","Metab-DrugA","SERUM",0.742,"ug/mL","2024-01-21T09:31:51","2024-01-21T08:02:56","PT1.5H",NA,NA
"PC","S1","S1-01","Metab-DrugA","SERUM",0.741,"ug/mL","2024-01-21T09:33:50","2024-01-21T08:02:56","PT1.5H",NA,NA
"PC","S1","S1-01","Metab-DrugA","SERUM",1.554,"ug/mL","2024-01-21T11:06:54","2024-01-21T08:02:56","PT3H",NA,NA
"PC","S1","S1-01","Metab-DrugA","SERUM",0.695,"ug/mL","2024-01-21T12:28:33","2024-01-21T08:02:56","PT4.5H",NA,NA
"PC","S1","S1-01","Metab-DrugA","SERUM",0.322,"ug/mL","2024-01-21T14:01:51","2024-01-21T08:02:56","PT6H",NA,NA
"PC","S1","S1-01","Metab-DrugA","SERUM",0.192,"ug/mL","2024-01-21T15:37:40","2024-01-21T08:02:56","PT7.5H",NA,NA
"PC","S1","S1-01","Metab-DrugA","SERUM",0,"ug/mL","2024-01-21T20:05:27","2024-01-21T08:02:56","PT12H",NA,NA
"PC","S1","S1-01","Metab-DrugA","SERUM",0.017,"ug/mL","2024-01-22T07:59:24","2024-01-22T08:04:26","PT-0.083H",NA,NA
"PC","S1","S1-01","Metab-DrugA","SERUM",0.339,"ug/mL","2024-01-22T08:37:01","2024-01-22T08:04:26","PT0.5H",NA,NA
"PC","S1","S1-01","Metab-DrugA","SERUM",0.747,"ug/mL","2024-01-22T09:29:49","2024-01-22T08:04:26","PT1.5H",NA,NA
"PC","S1","S1-01","Metab-DrugA","SERUM",0.814,"ug/mL","2024-01-22T09:34:58","2024-01-22T08:04:26","PT1.5H",NA,NA
"PC","S1","S1-01","Metab-DrugA","SERUM",1.594,"ug/mL","2024-01-22T11:06:18","2024-01-22T08:04:26","PT3H",NA,NA
"PC","S1","S1-01","Metab-DrugA","SERUM",0.754,"ug/mL","2024-01-22T12:34:37","2024-01-22T08:04:26","PT4.5H",NA,NA
"PC","S1","S1-01","Metab-DrugA","SERUM",0.383,"ug/mL","2024-01-22T14:08:02","2024-01-22T08:04:26","PT6H",NA,NA
"PC","S1","S1-01","Metab-DrugA","SERUM",0.058,"ug/mL","2024-01-22T15:39:28","2024-01-22T08:04:26","PT7.5H",NA,NA
"PC","S1","S1-01","Metab-DrugA","SERUM",0.002,"ug/mL","2024-01-22T19:58:51","2024-01-22T08:04:26","PT12H",NA,NA
"PC","S1","S1-02","DrugA","SERUM",0.058,"ug/mL","2024-01-18T07:55:01","2024-01-18T08:00:00","PT-0.083H",NA,NA
"PC","S1","S1-02","DrugA","SERUM",1.728,"ug/mL","2024-01-18T08:35:09","2024-01-18T08:00:00","PT0.5H",NA,NA
"PC","S1","S1-02","DrugA","SERUM",4.122,"ug/mL","2024-01-18T09:27:25","2024-01-18T08:00:00","PT1.5H",NA,NA
"PC","S1","S1-02","DrugA","SERUM",4.322,"ug/mL","2024-01-18T09:29:06","2024-01-18T08:00:00","PT1.5H",NA,NA
"PC","S1","S1-02","DrugA","SERUM",8.539,"ug/mL","2024-01-18T11:03:18","2024-01-18T08:00:00","PT3H",NA,NA
"PC","S1","S1-02","DrugA","SERUM",4.155,"ug/mL","2024-01-18T12:31:30","2024-01-18T08:00:00","PT4.5H",NA,NA
"PC","S1","S1-02","DrugA","SERUM",1.986,"ug/mL","2024-01-18T13:57:46","2024-01-18T08:00:00","PT6H",NA,NA
"PC","S1","S1-02","DrugA","SERUM",0.903,"ug/mL","2024-01-18T15:31:26","2024-01-18T08:00:00","PT7.5H",NA,NA
"PC","S1","S1-02","DrugA","SERUM",0.094,"ug/mL","2024-01-18T19:59:02","2024-01-18T08:00:00","PT12H",NA,NA
"PC","S1","S1-02","DrugA","SERUM",0,"ug/mL","2024-01-19T07:53:13","2024-01-19T07:58:08","PT-0.083H",NA,NA
"PC","S1","S1-02","DrugA","SERUM",1.468,"ug/mL","2024-01-19T08:28:58","2024-01-19T07:58:08","PT0.5H",NA,NA
"PC","S1","S1-02","DrugA","SERUM",4.312,"ug/mL","2024-01-19T09:26:34","2024-01-19T07:58:08","PT1.5H",NA,NA
"PC","S1","S1-02","DrugA","SERUM",4.659,"ug/mL","2024-01-19T09:30:10","2024-01-19T07:58:08","PT1.5H",NA,NA
"PC","S1","S1-02","DrugA","SERUM",8.401,"ug/mL","2024-01-19T10:59:02","2024-01-19T07:58:08","PT3H",NA,NA
"PC","S1","S1-02","DrugA","SERUM",4.19,"ug/mL","2024-01-19T12:21:50","2024-01-19T07:58:08","PT4.5H",NA,NA
"PC","S1","S1-02","DrugA","SERUM",1.89,"ug/mL","2024-01-19T13:59:02","2024-01-19T07:58:08","PT6H",NA,NA
"PC","S1","S1-02","DrugA","SERUM",0.881,"ug/mL","2024-01-19T15:30:46","2024-01-19T07:58:08","PT7.5H",NA,NA
"PC","S1","S1-02","DrugA","SERUM",0.117,"ug/mL","2024-01-19T19:57:21","2024-01-19T07:58:08","PT12H",NA,NA
"PC","S1","S1-02","DrugA","SERUM",0.013,"ug/mL","2024-01-20T08:04:08","2024-01-20T08:09:03","PT-0.083H",NA,NA
"PC","S1","S1-02","DrugA","SERUM",1.359,"ug/mL","2024-01-20T08:37:48","2024-01-20T08:09:03","PT0.5H",NA,NA
"PC","S1","S1-02","DrugA","SERUM",4.409,"ug/mL","2024-01-20T09:37:04","2024-01-20T08:09:03","PT1.5H",NA,NA
"PC","S1","S1-02","DrugA","SERUM",4.389,"ug/mL","2024-01-20T09:38:06","2024-01-20T08:09:03","PT1.5H",NA,NA
"PC","S1","S1-02","DrugA","SERUM",8.417,"ug/mL","2024-01-20T11:08:42","2024-01-20T08:09:03","PT3H",NA,NA
"PC","S1","S1-02","DrugA","SERUM",4.173,"ug/mL","2024-01-20T12:36:03","2024-01-20T08:09:03","PT4.5H",NA,NA
"PC","S1","S1-02","DrugA","SERUM",1.934,"ug/mL","2024-01-20T14:06:25","2024-01-20T08:09:03","PT6H",NA,NA
"PC","S1","S1-02","DrugA","SERUM",0.801,"ug/mL","2024-01-20T15:38:38","2024-01-20T08:09:03","PT7.5H",NA,NA
"PC","S1","S1-02","DrugA","SERUM",0.19,"ug/mL","2024-01-20T20:09:14","2024-01-20T08:09:03","PT12H",NA,NA
"PC","S1","S1-02","DrugA","SERUM",0,"ug/mL","2024-01-21T07:57:18","2024-01-21T08:02:20","PT-0.083H",NA,NA
"PC","S1","S1-02","DrugA","SERUM",1.213,"ug/mL","2024-01-21T08:28:48","2024-01-21T08:02:20","PT0.5H",NA,NA
"PC","S1","S1-02","DrugA","SERUM",4.052,"ug/mL","2024-01-21T09:27:39","2024-01-21T08:02:20","PT1.5H",NA,NA
"PC","S1","S1-02","DrugA","SERUM",4.284,"ug/mL","2024-01-21T09:32:09","2024-01-21T08:02:20","PT1.5H",NA,NA
"PC","S1","S1-02","DrugA","SERUM",8.576,"ug/mL","2024-01-21T10:59:34","2024-01-21T08:02:20","PT3H",NA,NA
"PC","S1","S1-02","DrugA","SERUM",4.169,"ug/mL","2024-01-21T12:33:57","2024-01-21T08:02:20","PT4.5H",NA,NA
"PC","S1","S1-02","DrugA","SERUM",1.865,"ug/mL","2024-01-21T14:02:56","2024-01-21T08:02:20","PT6H",NA,NA
"PC","S1","S1-02","DrugA","SERUM",0.903,"ug/mL","2024-01-21T15:33:43","2024-01-21T08:02:20","PT7.5H",NA,NA
"PC","S1","S1-02","DrugA","SERUM",0.091,"ug/mL","2024-01-21T19:59:52","2024-01-21T08:02:20","PT12H",NA,NA
"PC","S1","S1-02","DrugA","SERUM",0.109,"ug/mL","2024-01-22T07:51:07","2024-01-22T07:56:16","PT-0.083H",NA,NA
"PC","S1","S1-02","DrugA","SERUM",1.286,"ug/mL","2024-01-22T08:25:15","2024-01-22T07:56:16","PT0.5H",NA,NA
"PC","S1","S1-02","DrugA","SERUM",4.047,"ug/mL","2024-01-22T09:20:31","2024-01-22T07:56:16","PT1.5H",NA,NA
"PC","S1","S1-02","DrugA","SERUM",4.426,"ug/mL","2024-01-22T09:25:12","2024-01-22T07:56:16","PT1.5H",NA,NA
"PC","S1","S1-02","DrugA","SERUM",8.351,"ug/mL","2024-01-22T11:01:04","2024-01-22T07:56:16","PT3H",NA,NA
"PC","S1","S1-02","DrugA","SERUM",4.086,"ug/mL","2024-01-22T12:24:54","2024-01-22T07:56:16","PT4.5H",NA,NA
"PC","S1","S1-02","DrugA","SERUM",1.844,"ug/mL","2024-01-22T13:56:09","2024-01-22T07:56:16","PT6H",NA,NA
"PC","S1","S1-02","DrugA","SERUM",0.933,"ug/mL","2024-01-22T15:27:25","2024-01-22T07:56:16","PT7.5H",NA,NA
"PC","S1","S1-02","DrugA","SERUM",0.031,"ug/mL","2024-01-22T20:01:44","2024-01-22T07:56:16","PT12H",NA,NA
"PC","S1","S1-02","DrugA","SERUM",0.088,"ug/mL","2024-01-23T07:41:52","2024-01-23T07:46:44","PT-0.083H",NA,NA
"PC","S1","S1-02","DrugA","SERUM",1.339,"ug/mL","2024-01-23T08:13:55","2024-01-23T07:46:44","PT0.5H",NA,NA
"PC","S1","S1-02","DrugA","SERUM",4.582,"ug/mL","2024-01-23T09:20:16","2024-01-23T07:46:44","PT1.5H",NA,NA
"PC","S1","S1-02","DrugA","SERUM",4.655,"ug/mL","2024-01-23T09:20:49","2024-01-23T07:46:44","PT1.5H",NA,NA
"PC","S1","S1-02","DrugA","SERUM",8.748,"ug/mL","2024-01-23T10:46:51","2024-01-23T07:46:44","PT3H",NA,NA
"PC","S1","S1-02","DrugA","SERUM",3.833,"ug/mL","2024-01-23T12:23:13","2024-01-23T07:46:44","PT4.5H",NA,NA
"PC","S1","S1-02","DrugA","SERUM",2.113,"ug/mL","2024-01-23T13:41:42","2024-01-23T07:46:44","PT6H",NA,NA
"PC","S1","S1-02","DrugA","SERUM",0.839,"ug/mL","2024-01-23T15:14:27","2024-01-23T07:46:44","PT7.5H",NA,NA
"PC","S1","S1-02","DrugA","SERUM",0.054,"ug/mL","2024-01-23T19:42:28","2024-01-23T07:46:44","PT12H",NA,NA
"PC","S1","S1-02","DrugA","SERUM",0.018,"ug/mL","2024-01-24T08:01:44","2024-01-24T08:06:43","PT-0.083H",NA,NA
"PC","S1","S1-02","DrugA","SERUM",1.434,"ug/mL","2024-01-24T08:35:56","2024-01-24T08:06:43","PT0.5H",NA,NA
"PC","S1","S1-02","DrugA","SERUM",4.086,"ug/mL","2024-01-24T09:31:44","2024-01-24T08:06:43","PT1.5H",NA,NA
"PC","S1","S1-02","DrugA","SERUM",4.254,"ug/mL","2024-01-24T09:35:42","2024-01-24T08:06:43","PT1.5H",NA,NA
"PC","S1","S1-02","DrugA","SERUM",8.69,"ug/mL","2024-01-24T11:04:33","2024-01-24T08:06:43","PT3H",NA,NA
"PC","S1","S1-02","DrugA","SERUM",4.074,"ug/mL","2024-01-24T12:40:26","2024-01-24T08:06:43","PT4.5H",NA,NA
"PC","S1","S1-02","DrugA","SERUM",2.048,"ug/mL","2024-01-24T14:06:18","2024-01-24T08:06:43","PT6H",NA,NA
"PC","S1","S1-02","DrugA","SERUM",0.978,"ug/mL","2024-01-24T15:35:49","2024-01-24T08:06:43","PT7.5H",NA,NA
"PC","S1","S1-02","DrugA","SERUM",0.027,"ug/mL","2024-01-24T20:07:30","2024-01-24T08:06:43","PT12H",NA,NA
"PC","S1","S1-02","DrugA","SERUM",0,"ug/mL","2024-01-25T07:54:46","2024-01-25T07:59:45","PT-0.083H",NA,NA
"PC","S1","S1-02","DrugA","SERUM",1.633,"ug/mL","2024-01-25T08:30:57","2024-01-25T07:59:45","PT0.5H",NA,NA
"PC","S1","S1-02","DrugA","SERUM",4.296,"ug/mL","2024-01-25T09:28:22","2024-01-25T07:59:45","PT1.5H",NA,NA
"PC","S1","S1-02","DrugA","SERUM",4.739,"ug/mL","2024-01-25T09:31:58","2024-01-25T07:59:45","PT1.5H",NA,NA
"PC","S1","S1-02","DrugA","SERUM",8.479,"ug/mL","2024-01-25T11:02:20","2024-01-25T07:59:45","PT3H",NA,NA
"PC","S1","S1-02","DrugA","SERUM",4.034,"ug/mL","2024-01-25T12:31:33","2024-01-25T07:59:45","PT4.5H",NA,NA
"PC","S1","S1-02","DrugA","SERUM",1.89,"ug/mL","2024-01-25T14:03:18","2024-01-25T07:59:45","PT6H",NA,NA
"PC","S1","S1-02","DrugA","SERUM",1.051,"ug/mL","2024-01-25T15:29:20","2024-01-25T07:59:45","PT7.5H",NA,NA
"PC","S1","S1-02","DrugA","SERUM",0.22,"ug/mL","2024-01-25T19:50:56","2024-01-25T07:59:45","PT12H",NA,NA
"PC","S1","S1-02","DrugA","URINE",1.728,"mg/mL","2024-01-18T08:35:09","2024-01-18T08:00:00","PT0.5H",122,"mL"
"PC","S1","S1-02","DrugA","URINE",8.539,"mg/mL","2024-01-18T11:03:18","2024-01-18T08:00:00","PT3H",103,"mL"
"PC","S1","S1-02","DrugA","URINE",1.986,"mg/mL","2024-01-18T13:57:46","2024-01-18T08:00:00","PT6H",85,"mL"
"PC","S1","S1-02","DrugA","URINE",0.094,"mg/mL","2024-01-18T19:59:02","2024-01-18T08:00:00","PT12H",99,"mL"
"PC","S1","S1-02","DrugA","URINE",1.468,"mg/mL","2024-01-19T08:28:58","2024-01-19T07:58:08","PT0.5H",114,"mL"
"PC","S1","S1-02","DrugA","URINE",8.401,"mg/mL","2024-01-19T10:59:02","2024-01-19T07:58:08","PT3H",78,"mL"
"PC","S1","S1-02","DrugA","URINE",1.89,"mg/mL","2024-01-19T13:59:02","2024-01-19T07:58:08","PT6H",99,"mL"
"PC","S1","S1-02","DrugA","URINE",0.117,"mg/mL","2024-01-19T19:57:21","2024-01-19T07:58:08","PT12H",88,"mL"
"PC","S1","S1-02","DrugA","URINE",1.359,"mg/mL","2024-01-20T08:37:48","2024-01-20T08:09:03","PT0.5H",77,"mL"
"PC","S1","S1-02","DrugA","URINE",8.417,"mg/mL","2024-01-20T11:08:42","2024-01-20T08:09:03","PT3H",131,"mL"
"PC","S1","S1-02","DrugA","URINE",1.934,"mg/mL","2024-01-20T14:06:25","2024-01-20T08:09:03","PT6H",103,"mL"
"PC","S1","S1-02","DrugA","URINE",0.19,"mg/mL","2024-01-20T20:09:14","2024-01-20T08:09:03","PT12H",108,"mL"
"PC","S1","S1-02","DrugA","URINE",1.213,"mg/mL","2024-01-21T08:28:48","2024-01-21T08:02:20","PT0.5H",102,"mL"
"PC","S1","S1-02","DrugA","URINE",8.576,"mg/mL","2024-01-21T10:59:34","2024-01-21T08:02:20","PT3H",76,"mL"
"PC","S1","S1-02","DrugA","URINE",1.865,"mg/mL","2024-01-21T14:02:56","2024-01-21T08:02:20","PT6H",101,"mL"
"PC","S1","S1-02","DrugA","URINE",0.091,"mg/mL","2024-01-21T19:59:52","2024-01-21T08:02:20","PT12H",120,"mL"
"PC","S1","S1-02","DrugA","URINE",1.286,"mg/mL","2024-01-22T08:25:15","2024-01-22T07:56:16","PT0.5H",121,"mL"
"PC","S1","S1-02","DrugA","URINE",8.351,"mg/mL","2024-01-22T11:01:04","2024-01-22T07:56:16","PT3H",92,"mL"
"PC","S1","S1-02","DrugA","URINE",1.844,"mg/mL","2024-01-22T13:56:09","2024-01-22T07:56:16","PT6H",123,"mL"
"PC","S1","S1-02","DrugA","URINE",0.031,"mg/mL","2024-01-22T20:01:44","2024-01-22T07:56:16","PT12H",122,"mL"
"PC","S1","S1-02","DrugA","URINE",1.339,"mg/mL","2024-01-23T08:13:55","2024-01-23T07:46:44","PT0.5H",112,"mL"
"PC","S1","S1-02","DrugA","URINE",8.748,"mg/mL","2024-01-23T10:46:51","2024-01-23T07:46:44","PT3H",125,"mL"
"PC","S1","S1-02","DrugA","URINE",2.113,"mg/mL","2024-01-23T13:41:42","2024-01-23T07:46:44","PT6H",115,"mL"
"PC","S1","S1-02","DrugA","URINE",0.054,"mg/mL","2024-01-23T19:42:28","2024-01-23T07:46:44","PT12H",108,"mL"
"PC","S1","S1-02","DrugA","URINE",1.434,"mg/mL","2024-01-24T08:35:56","2024-01-24T08:06:43","PT0.5H",71,"mL"
"PC","S1","S1-02","DrugA","URINE",8.69,"mg/mL","2024-01-24T11:04:33","2024-01-24T08:06:43","PT3H",110,"mL"
"PC","S1","S1-02","DrugA","URINE",2.048,"mg/mL","2024-01-24T14:06:18","2024-01-24T08:06:43","PT6H",101,"mL"
"PC","S1","S1-02","DrugA","URINE",0.027,"mg/mL","2024-01-24T20:07:30","2024-01-24T08:06:43","PT12H",87,"mL"
"PC","S1","S1-02","DrugA","URINE",1.633,"mg/mL","2024-01-25T08:30:57","2024-01-25T07:59:45","PT0.5H",98,"mL"
"PC","S1","S1-02","DrugA","URINE",8.479,"mg/mL","2024-01-25T11:02:20","2024-01-25T07:59:45","PT3H",85,"mL"
"PC","S1","S1-02","DrugA","URINE",1.89,"mg/mL","2024-01-25T14:03:18","2024-01-25T07:59:45","PT6H",118,"mL"
"PC","S1","S1-02","DrugA","URINE",0.22,"mg/mL","2024-01-25T19:50:56","2024-01-25T07:59:45","PT12H",97,"mL"
"PC","S1","S1-02","Metab-DrugA","SERUM",0,"ug/mL","2024-01-18T07:55:01","2024-01-18T08:00:00","PT-0.083H",NA,NA
"PC","S1","S1-02","Metab-DrugA","SERUM",0.618,"ug/mL","2024-01-18T08:35:09","2024-01-18T08:00:00","PT0.5H",NA,NA
"PC","S1","S1-02","Metab-DrugA","SERUM",1.723,"ug/mL","2024-01-18T09:27:25","2024-01-18T08:00:00","PT1.5H",NA,NA
"PC","S1","S1-02","Metab-DrugA","SERUM",1.734,"ug/mL","2024-01-18T09:29:06","2024-01-18T08:00:00","PT1.5H",NA,NA
"PC","S1","S1-02","Metab-DrugA","SERUM",3.486,"ug/mL","2024-01-18T11:03:18","2024-01-18T08:00:00","PT3H",NA,NA
"PC","S1","S1-02","Metab-DrugA","SERUM",1.633,"ug/mL","2024-01-18T12:31:30","2024-01-18T08:00:00","PT4.5H",NA,NA
"PC","S1","S1-02","Metab-DrugA","SERUM",0.67,"ug/mL","2024-01-18T13:57:46","2024-01-18T08:00:00","PT6H",NA,NA
"PC","S1","S1-02","Metab-DrugA","SERUM",0.386,"ug/mL","2024-01-18T15:31:26","2024-01-18T08:00:00","PT7.5H",NA,NA
"PC","S1","S1-02","Metab-DrugA","SERUM",0.105,"ug/mL","2024-01-18T19:59:02","2024-01-18T08:00:00","PT12H",NA,NA
"PC","S1","S1-02","Metab-DrugA","SERUM",0.127,"ug/mL","2024-01-19T07:53:13","2024-01-19T07:58:08","PT-0.083H",NA,NA
"PC","S1","S1-02","Metab-DrugA","SERUM",0.66,"ug/mL","2024-01-19T08:28:58","2024-01-19T07:58:08","PT0.5H",NA,NA
"PC","S1","S1-02","Metab-DrugA","SERUM",1.795,"ug/mL","2024-01-19T09:26:34","2024-01-19T07:58:08","PT1.5H",NA,NA
"PC","S1","S1-02","Metab-DrugA","SERUM",1.799,"ug/mL","2024-01-19T09:30:10","2024-01-19T07:58:08","PT1.5H",NA,NA
"PC","S1","S1-02","Metab-DrugA","SERUM",3.391,"ug/mL","2024-01-19T10:59:02","2024-01-19T07:58:08","PT3H",NA,NA
"PC","S1","S1-02","Metab-DrugA","SERUM",1.675,"ug/mL","2024-01-19T12:21:50","2024-01-19T07:58:08","PT4.5H",NA,NA
"PC","S1","S1-02","Metab-DrugA","SERUM",0.805,"ug/mL","2024-01-19T13:59:02","2024-01-19T07:58:08","PT6H",NA,NA
"PC","S1","S1-02","Metab-DrugA","SERUM",0.296,"ug/mL","2024-01-19T15:30:46","2024-01-19T07:58:08","PT7.5H",NA,NA
"PC","S1","S1-02","Metab-DrugA","SERUM",0.035,"ug/mL","2024-01-19T19:57:21","2024-01-19T07:58:08","PT12H",NA,NA
"PC","S1","S1-02","Metab-DrugA","SERUM",0,"ug/mL","2024-01-20T08:04:08","2024-01-20T08:09:03","PT-0.083H",NA,NA
"PC","S1","S1-02","Metab-DrugA","SERUM",0.552,"ug/mL","2024-01-20T08:37:48","2024-01-20T08:09:03","PT0.5H",NA,NA
"PC","S1","S1-02","Metab-DrugA","SERUM",1.769,"ug/mL","2024-01-20T09:37:04","2024-01-20T08:09:03","PT1.5H",NA,NA
"PC","S1","S1-02","Metab-DrugA","SERUM",1.744,"ug/mL","2024-01-20T09:38:06","2024-01-20T08:09:03","PT1.5H",NA,NA
"PC","S1","S1-02","Metab-DrugA","SERUM",3.314,"ug/mL","2024-01-20T11:08:42","2024-01-20T08:09:03","PT3H",NA,NA
"PC","S1","S1-02","Metab-DrugA","SERUM",1.653,"ug/mL","2024-01-20T12:36:03","2024-01-20T08:09:03","PT4.5H",NA,NA
"PC","S1","S1-02","Metab-DrugA","SERUM",0.669,"ug/mL","2024-01-20T14:06:25","2024-01-20T08:09:03","PT6H",NA,NA
"PC","S1","S1-02","Metab-DrugA","SERUM",0.311,"ug/mL","2024-01-20T15:38:38","2024-01-20T08:09:03","PT7.5H",NA,NA
"PC","S1","S1-02","Metab-DrugA","SERUM",0,"ug/mL","2024-01-20T20:09:14","2024-01-20T08:09:03","PT12H",NA,NA
"PC","S1","S1-02","Metab-DrugA","SERUM",0,"ug/mL","2024-01-21T07:57:18","2024-01-21T08:02:20","PT-0.083H",NA,NA
"PC","S1","S1-02","Metab-DrugA","SERUM",0.586,"ug/mL","2024-01-21T08:28:48","2024-01-21T08:02:20","PT0.5H",NA,NA
"PC","S1","S1-02","Metab-DrugA","SERUM",1.68,"ug/mL","2024-01-21T09:27:39","2024-01-21T08:02:20","PT1.5H",NA,NA
"PC","S1","S1-02","Metab-DrugA","SERUM",1.802,"ug/mL","2024-01-21T09:32:09","2024-01-21T08:02:20","PT1.5H",NA,NA
"PC","S1","S1-02","Metab-DrugA","SERUM",3.513,"ug/mL","2024-01-21T10:59:34","2024-01-21T08:02:20","PT3H",NA,NA
"PC","S1","S1-02","Metab-DrugA","SERUM",1.639,"ug/mL","2024-01-21T12:33:57","2024-01-21T08:02:20","PT4.5H",NA,NA
"PC","S1","S1-02","Metab-DrugA","SERUM",0.765,"ug/mL","2024-01-21T14:02:56","2024-01-21T08:02:20","PT6H",NA,NA
"PC","S1","S1-02","Metab-DrugA","SERUM",0.283,"ug/mL","2024-01-21T15:33:43","2024-01-21T08:02:20","PT7.5H",NA,NA
"PC","S1","S1-02","Metab-DrugA","SERUM",0.099,"ug/mL","2024-01-21T19:59:52","2024-01-21T08:02:20","PT12H",NA,NA
"PC","S1","S1-02","Metab-DrugA","SERUM",0,"ug/mL","2024-01-22T07:51:07","2024-01-22T07:56:16","PT-0.083H",NA,NA
"PC","S1","S1-02","Metab-DrugA","SERUM",0.566,"ug/mL","2024-01-22T08:25:15","2024-01-22T07:56:16","PT0.5H",NA,NA
"PC","S1","S1-02","Metab-DrugA","SERUM",1.55,"ug/mL","2024-01-22T09:20:31","2024-01-22T07:56:16","PT1.5H",NA,NA
"PC","S1","S1-02","Metab-DrugA","SERUM",1.836,"ug/mL","2024-01-22T09:25:12","2024-01-22T07:56:16","PT1.5H",NA,NA
"PC","S1","S1-02","Metab-DrugA","SERUM",3.313,"ug/mL","2024-01-22T11:01:04","2024-01-22T07:56:16","PT3H",NA,NA
"PC","S1","S1-02","Metab-DrugA","SERUM",1.689,"ug/mL","2024-01-22T12:24:54","2024-01-22T07:56:16","PT4.5H",NA,NA
"PC","S1","S1-02","Metab-DrugA","SERUM",0.738,"ug/mL","2024-01-22T13:56:09","2024-01-22T07:56:16","PT6H",NA,NA
"PC","S1","S1-02","Metab-DrugA","SERUM",0.339,"ug/mL","2024-01-22T15:27:25","2024-01-22T07:56:16","PT7.5H",NA,NA
"PC","S1","S1-02","Metab-DrugA","SERUM",0.058,"ug/mL","2024-01-22T20:01:44","2024-01-22T07:56:16","PT12H",NA,NA
"PC","S1","S1-02","Metab-DrugA","SERUM",0.016,"ug/mL","2024-01-23T07:41:52","2024-01-23T07:46:44","PT-0.083H",NA,NA
"PC","S1","S1-02","Metab-DrugA","SERUM",0.502,"ug/mL","2024-01-23T08:13:55","2024-01-23T07:46:44","PT0.5H",NA,NA
"PC","S1","S1-02","Metab-DrugA","SERUM",1.773,"ug/mL","2024-01-23T09:20:16","2024-01-23T07:46:44","PT1.5H",NA,NA
"PC","S1","S1-02","Metab-DrugA","SERUM",1.952,"ug/mL","2024-01-23T09:20:49","2024-01-23T07:46:44","PT1.5H",NA,NA
"PC","S1","S1-02","Metab-DrugA","SERUM",3.448,"ug/mL","2024-01-23T10:46:51","2024-01-23T07:46:44","PT3H",NA,NA
"PC","S1","S1-02","Metab-DrugA","SERUM",1.567,"ug/mL","2024-01-23T12:23:13","2024-01-23T07:46:44","PT4.5H",NA,NA
"PC","S1","S1-02","Metab-DrugA","SERUM",0.85,"ug/mL","2024-01-23T13:41:42","2024-01-23T07:46:44","PT6H",NA,NA
"PC","S1","S1-02","Metab-DrugA","SERUM",0.296,"ug/mL","2024-01-23T15:14:27","2024-01-23T07:46:44","PT7.5H",NA,NA
"PC","S1","S1-02","Metab-DrugA","SERUM",0,"ug/mL","2024-01-23T19:42:28","2024-01-23T07:46:44","PT12H",NA,NA
"PC","S1","S1-02","Metab-DrugA","SERUM",0,"ug/mL","2024-01-24T08:01:44","2024-01-24T08:06:43","PT-0.083H",NA,NA
"PC","S1","S1-02","Metab-DrugA","SERUM",0.533,"ug/mL","2024-01-24T08:35:56","2024-01-24T08:06:43","PT0.5H",NA,NA
"PC","S1","S1-02","Metab-DrugA","SERUM",1.594,"ug/mL","2024-01-24T09:31:44","2024-01-24T08:06:43","PT1.5H",NA,NA
"PC","S1","S1-02","Metab-DrugA","SERUM",1.749,"ug/mL","2024-01-24T09:35:42","2024-01-24T08:06:43","PT1.5H",NA,NA
"PC","S1","S1-02","Metab-DrugA","SERUM",3.442,"ug/mL","2024-01-24T11:04:33","2024-01-24T08:06:43","PT3H",NA,NA
"PC","S1","S1-02","Metab-DrugA","SERUM",1.727,"ug/mL","2024-01-24T12:40:26","2024-01-24T08:06:43","PT4.5H",NA,NA
"PC","S1","S1-02","Metab-DrugA","SERUM",0.861,"ug/mL","2024-01-24T14:06:18","2024-01-24T08:06:43","PT6H",NA,NA
"PC","S1","S1-02","Metab-DrugA","SERUM",0.46,"ug/mL","2024-01-24T15:35:49","2024-01-24T08:06:43","PT7.5H",NA,NA
"PC","S1","S1-02","Metab-DrugA","SERUM",0.043,"ug/mL","2024-01-24T20:07:30","2024-01-24T08:06:43","PT12H",NA,NA
"PC","S1","S1-02","Metab-DrugA","SERUM",0.042,"ug/mL","2024-01-25T07:54:46","2024-01-25T07:59:45","PT-0.083H",NA,NA
"PC","S1","S1-02","Metab-DrugA","SERUM",0.675,"ug/mL","2024-01-25T08:30:57","2024-01-25T07:59:45","PT0.5H",NA,NA
"PC","S1","S1-02","Metab-DrugA","SERUM",1.677,"ug/mL","2024-01-25T09:28:22","2024-01-25T07:59:45","PT1.5H",NA,NA
"PC","S1","S1-02","Metab-DrugA","SERUM",1.916,"ug/mL","2024-01-25T09:31:58","2024-01-25T07:59:45","PT1.5H",NA,NA
"PC","S1","S1-02","Metab-DrugA","SERUM",3.366,"ug/mL","2024-01-25T11:02:20","2024-01-25T07:59:45","PT3H",NA,NA
"PC","S1","S1-02","Metab-DrugA","SERUM",1.646,"ug/mL","2024-01-25T12:31:33","2024-01-25T07:59:45","PT4.5H",NA,NA
"PC","S1","S1-02","Metab-DrugA","SERUM",0.709,"ug/mL","2024-01-25T14:03:18","2024-01-25T07:59:45","PT6H",NA,NA
"PC","S1","S1-02","Metab-DrugA","SERUM",0.433,"ug/mL","2024-01-25T15:29:20","2024-01-25T07:59:45","PT7.5H",NA,NA
"PC","S1","S1-02","Metab-DrugA","SERUM",0.032,"ug/mL","2024-01-25T19:50:56","2024-01-25T07:59:45","PT12H",NA,NA
"PC","S1","S1-03","DrugA","SERUM",0.066,"ug/mL","2024-01-21T07:55:01","2024-01-21T08:00:00","PT-0.083H",NA,NA
"PC","S1","S1-03","DrugA","SERUM",0.715,"ug/mL","2024-01-21T08:27:25","2024-01-21T08:00:00","PT0.5H",NA,NA
"PC","S1","S1-03","DrugA","SERUM",2.206,"ug/mL","2024-01-21T09:26:38","2024-01-21T08:00:00","PT1.5H",NA,NA
"PC","S1","S1-03","DrugA","SERUM",2.438,"ug/mL","2024-01-21T09:32:49","2024-01-21T08:00:00","PT1.5H",NA,NA
"PC","S1","S1-03","DrugA","SERUM",4.336,"ug/mL","2024-01-21T11:03:14","2024-01-21T08:00:00","PT3H",NA,NA
"PC","S1","S1-03","DrugA","SERUM",2.037,"ug/mL","2024-01-21T12:30:00","2024-01-21T08:00:00","PT4.5H",NA,NA
"PC","S1","S1-03","DrugA","SERUM",0.951,"ug/mL","2024-01-21T14:02:02","2024-01-21T08:00:00","PT6H",NA,NA
"PC","S1","S1-03","DrugA","SERUM",0.46,"ug/mL","2024-01-21T15:34:12","2024-01-21T08:00:00","PT7.5H",NA,NA
"PC","S1","S1-03","DrugA","SERUM",0.122,"ug/mL","2024-01-21T20:00:00","2024-01-21T08:00:00","PT12H",NA,NA
"PC","S1","S1-03","DrugA","SERUM",0.048,"ug/mL","2024-01-22T08:00:39","2024-01-22T08:05:38","PT-0.083H",NA,NA
"PC","S1","S1-03","DrugA","SERUM",0.989,"ug/mL","2024-01-22T08:43:33","2024-01-22T08:05:38","PT0.5H",NA,NA
"PC","S1","S1-03","DrugA","SERUM",2.234,"ug/mL","2024-01-22T09:33:21","2024-01-22T08:05:38","PT1.5H",NA,NA
"PC","S1","S1-03","DrugA","SERUM",2.454,"ug/mL","2024-01-22T09:35:38","2024-01-22T08:05:38","PT1.5H",NA,NA
"PC","S1","S1-03","DrugA","SERUM",4.418,"ug/mL","2024-01-22T11:11:20","2024-01-22T08:05:38","PT3H",NA,NA
"PC","S1","S1-03","DrugA","SERUM",2.18,"ug/mL","2024-01-22T12:36:28","2024-01-22T08:05:38","PT4.5H",NA,NA
"PC","S1","S1-03","DrugA","SERUM",1.083,"ug/mL","2024-01-22T14:06:03","2024-01-22T08:05:38","PT6H",NA,NA
"PC","S1","S1-03","DrugA","SERUM",0.522,"ug/mL","2024-01-22T15:32:31","2024-01-22T08:05:38","PT7.5H",NA,NA
"PC","S1","S1-03","DrugA","SERUM",0,"ug/mL","2024-01-22T20:07:08","2024-01-22T08:05:38","PT12H",NA,NA
"PC","S1","S1-03","DrugA","SERUM",0,"ug/mL","2024-01-23T07:59:56","2024-01-23T08:04:55","PT-0.083H",NA,NA
"PC","S1","S1-03","DrugA","SERUM",0.702,"ug/mL","2024-01-23T08:35:24","2024-01-23T08:04:55","PT0.5H",NA,NA
"PC","S1","S1-03","DrugA","SERUM",2.176,"ug/mL","2024-01-23T09:33:50","2024-01-23T08:04:55","PT1.5H",NA,NA
"PC","S1","S1-03","DrugA","SERUM",2.342,"ug/mL","2024-01-23T09:41:09","2024-01-23T08:04:55","PT1.5H",NA,NA
"PC","S1","S1-03","DrugA","SERUM",4.6,"ug/mL","2024-01-23T11:03:07","2024-01-23T08:04:55","PT3H",NA,NA
"PC","S1","S1-03","DrugA","SERUM",2.155,"ug/mL","2024-01-23T12:32:49","2024-01-23T08:04:55","PT4.5H",NA,NA
"PC","S1","S1-03","DrugA","SERUM",1.07,"ug/mL","2024-01-23T14:01:19","2024-01-23T08:04:55","PT6H",NA,NA
"PC","S1","S1-03","DrugA","SERUM",0.491,"ug/mL","2024-01-23T15:28:33","2024-01-23T08:04:55","PT7.5H",NA,NA
"PC","S1","S1-03","DrugA","SERUM",0,"ug/mL","2024-01-23T20:01:40","2024-01-23T08:04:55","PT12H",NA,NA
"PC","S1","S1-03","DrugA","SERUM",0.012,"ug/mL","2024-01-24T07:58:33","2024-01-24T08:03:32","PT-0.083H",NA,NA
"PC","S1","S1-03","DrugA","SERUM",0.887,"ug/mL","2024-01-24T08:36:57","2024-01-24T08:03:32","PT0.5H",NA,NA
"PC","S1","S1-03","DrugA","SERUM",2.376,"ug/mL","2024-01-24T09:31:58","2024-01-24T08:03:32","PT1.5H",NA,NA
"PC","S1","S1-03","DrugA","SERUM",2.384,"ug/mL","2024-01-24T09:33:36","2024-01-24T08:03:32","PT1.5H",NA,NA
"PC","S1","S1-03","DrugA","SERUM",4.426,"ug/mL","2024-01-24T11:02:20","2024-01-24T08:03:32","PT3H",NA,NA
"PC","S1","S1-03","DrugA","SERUM",2.025,"ug/mL","2024-01-24T12:35:24","2024-01-24T08:03:32","PT4.5H",NA,NA
"PC","S1","S1-03","DrugA","SERUM",1.061,"ug/mL","2024-01-24T14:07:01","2024-01-24T08:03:32","PT6H",NA,NA
"PC","S1","S1-03","DrugA","SERUM",0.488,"ug/mL","2024-01-24T15:35:49","2024-01-24T08:03:32","PT7.5H",NA,NA
"PC","S1","S1-03","DrugA","SERUM",0.132,"ug/mL","2024-01-24T20:05:38","2024-01-24T08:03:32","PT12H",NA,NA
"PC","S1","S1-03","DrugA","SERUM",0.041,"ug/mL","2024-01-25T08:00:28","2024-01-25T08:05:31","PT-0.083H",NA,NA
"PC","S1","S1-03","DrugA","SERUM",0.702,"ug/mL","2024-01-25T08:28:40","2024-01-25T08:05:31","PT0.5H",NA,NA
"PC","S1","S1-03","DrugA","SERUM",2.157,"ug/mL","2024-01-25T09:31:40","2024-01-25T08:05:31","PT1.5H",NA,NA
"PC","S1","S1-03","DrugA","SERUM",2.379,"ug/mL","2024-01-25T09:37:44","2024-01-25T08:05:31","PT1.5H",NA,NA
"PC","S1","S1-03","DrugA","SERUM",4.439,"ug/mL","2024-01-25T11:04:15","2024-01-25T08:05:31","PT3H",NA,NA
"PC","S1","S1-03","DrugA","SERUM",2.232,"ug/mL","2024-01-25T12:39:57","2024-01-25T08:05:31","PT4.5H",NA,NA
"PC","S1","S1-03","DrugA","SERUM",1.009,"ug/mL","2024-01-25T14:05:45","2024-01-25T08:05:31","PT6H",NA,NA
"PC","S1","S1-03","DrugA","SERUM",0.536,"ug/mL","2024-01-25T15:33:03","2024-01-25T08:05:31","PT7.5H",NA,NA
"PC","S1","S1-03","DrugA","SERUM",0.108,"ug/mL","2024-01-25T20:06:32","2024-01-25T08:05:31","PT12H",NA,NA
"PC","S1","S1-03","DrugA","SERUM",0,"ug/mL","2024-01-26T07:59:34","2024-01-26T08:04:40","PT-0.083H",NA,NA
"PC","S1","S1-03","DrugA","SERUM",0.775,"ug/mL","2024-01-26T08:36:54","2024-01-26T08:04:40","PT0.5H",NA,NA
"PC","S1","S1-03","DrugA","SERUM",2.101,"ug/mL","2024-01-26T09:29:45","2024-01-26T08:04:40","PT1.5H",NA,NA
"PC","S1","S1-03","DrugA","SERUM",2.062,"ug/mL","2024-01-26T09:31:30","2024-01-26T08:04:40","PT1.5H",NA,NA
"PC","S1","S1-03","DrugA","SERUM",4.563,"ug/mL","2024-01-26T11:03:32","2024-01-26T08:04:40","PT3H",NA,NA
"PC","S1","S1-03","DrugA","SERUM",2.077,"ug/mL","2024-01-26T12:37:55","2024-01-26T08:04:40","PT4.5H",NA,NA
"PC","S1","S1-03","DrugA","SERUM",0.991,"ug/mL","2024-01-26T14:03:18","2024-01-26T08:04:40","PT6H",NA,NA
"PC","S1","S1-03","DrugA","SERUM",0.504,"ug/mL","2024-01-26T15:33:21","2024-01-26T08:04:40","PT7.5H",NA,NA
"PC","S1","S1-03","DrugA","SERUM",0.051,"ug/mL","2024-01-26T20:07:37","2024-01-26T08:04:40","PT12H",NA,NA
"PC","S1","S1-03","DrugA","SERUM",0,"ug/mL","2024-01-27T07:55:30","2024-01-27T08:00:25","PT-0.083H",NA,NA
"PC","S1","S1-03","DrugA","SERUM",0.584,"ug/mL","2024-01-27T08:26:27","2024-01-27T08:00:25","PT0.5H",NA,NA
"PC","S1","S1-03","DrugA","SERUM",2.282,"ug/mL","2024-01-27T09:31:08","2024-01-27T08:00:25","PT1.5H",NA,NA
"PC","S1","S1-03","DrugA","SERUM",2.22,"ug/mL","2024-01-27T09:31:48","2024-01-27T08:00:25","PT1.5H",NA,NA
"PC","S1","S1-03","DrugA","SERUM",4.528,"ug/mL","2024-01-27T10:59:20","2024-01-27T08:00:25","PT3H",NA,NA
"PC","S1","S1-03","DrugA","SERUM",2.293,"ug/mL","2024-01-27T12:27:57","2024-01-27T08:00:25","PT4.5H",NA,NA
"PC","S1","S1-03","DrugA","SERUM",1.085,"ug/mL","2024-01-27T14:05:20","2024-01-27T08:00:25","PT6H",NA,NA
"PC","S1","S1-03","DrugA","SERUM",0.467,"ug/mL","2024-01-27T15:33:07","2024-01-27T08:00:25","PT7.5H",NA,NA
"PC","S1","S1-03","DrugA","SERUM",0.097,"ug/mL","2024-01-27T19:57:54","2024-01-27T08:00:25","PT12H",NA,NA
"PC","S1","S1-03","DrugA","SERUM",0.007,"ug/mL","2024-01-28T07:43:08","2024-01-28T07:48:03","PT-0.083H",NA,NA
"PC","S1","S1-03","DrugA","SERUM",0.728,"ug/mL","2024-01-28T08:20:49","2024-01-28T07:48:03","PT0.5H",NA,NA
"PC","S1","S1-03","DrugA","SERUM",2.32,"ug/mL","2024-01-28T09:17:13","2024-01-28T07:48:03","PT1.5H",NA,NA
"PC","S1","S1-03","DrugA","SERUM",2.42,"ug/mL","2024-01-28T09:18:00","2024-01-28T07:48:03","PT1.5H",NA,NA
"PC","S1","S1-03","DrugA","SERUM",4.546,"ug/mL","2024-01-28T10:47:09","2024-01-28T07:48:03","PT3H",NA,NA
"PC","S1","S1-03","DrugA","SERUM",2.216,"ug/mL","2024-01-28T12:13:12","2024-01-28T07:48:03","PT4.5H",NA,NA
"PC","S1","S1-03","DrugA","SERUM",1.128,"ug/mL","2024-01-28T13:45:46","2024-01-28T07:48:03","PT6H",NA,NA
"PC","S1","S1-03","DrugA","SERUM",0.559,"ug/mL","2024-01-28T15:15:46","2024-01-28T07:48:03","PT7.5H",NA,NA
"PC","S1","S1-03","DrugA","SERUM",0.155,"ug/mL","2024-01-28T19:45:07","2024-01-28T07:48:03","PT12H",NA,NA
"PC","S1","S1-03","DrugA","URINE",0.715,"mg/mL","2024-01-21T08:27:25","2024-01-21T08:00:00","PT0.5H",80,"mL"
"PC","S1","S1-03","DrugA","URINE",4.336,"mg/mL","2024-01-21T11:03:14","2024-01-21T08:00:00","PT3H",102,"mL"
"PC","S1","S1-03","DrugA","URINE",0.951,"mg/mL","2024-01-21T14:02:02","2024-01-21T08:00:00","PT6H",81,"mL"
"PC","S1","S1-03","DrugA","URINE",0.122,"mg/mL","2024-01-21T20:00:00","2024-01-21T08:00:00","PT12H",80,"mL"
"PC","S1","S1-03","DrugA","URINE",0.989,"mg/mL","2024-01-22T08:43:33","2024-01-22T08:05:38","PT0.5H",73,"mL"
"PC","S1","S1-03","DrugA","URINE",4.418,"mg/mL","2024-01-22T11:11:20","2024-01-22T08:05:38","PT3H",90,"mL"
"PC","S1","S1-03","DrugA","URINE",1.083,"mg/mL","2024-01-22T14:06:03","2024-01-22T08:05:38","PT6H",93,"mL"
"PC","S1","S1-03","DrugA","URINE",0,"mg/mL","2024-01-22T20:07:08","2024-01-22T08:05:38","PT12H",115,"mL"
"PC","S1","S1-03","DrugA","URINE",0.702,"mg/mL","2024-01-23T08:35:24","2024-01-23T08:04:55","PT0.5H",91,"mL"
"PC","S1","S1-03","DrugA","URINE",4.6,"mg/mL","2024-01-23T11:03:07","2024-01-23T08:04:55","PT3H",117,"mL"
"PC","S1","S1-03","DrugA","URINE",1.07,"mg/mL","2024-01-23T14:01:19","2024-01-23T08:04:55","PT6H",80,"mL"
"PC","S1","S1-03","DrugA","URINE",0,"mg/mL","2024-01-23T20:01:40","2024-01-23T08:04:55","PT12H",86,"mL"
"PC","S1","S1-03","DrugA","URINE",0.887,"mg/mL","2024-01-24T08:36:57","2024-01-24T08:03:32","PT0.5H",84,"mL"
"PC","S1","S1-03","DrugA","URINE",4.426,"mg/mL","2024-01-24T11:02:20","2024-01-24T08:03:32","PT3H",78,"mL"
"PC","S1","S1-03","DrugA","URINE",1.061,"mg/mL","2024-01-24T14:07:01","2024-01-24T08:03:32","PT6H",91,"mL"
"PC","S1","S1-03","DrugA","URINE",0.132,"mg/mL","2024-01-24T20:05:38","2024-01-24T08:03:32","PT12H",98,"mL"
"PC","S1","S1-03","DrugA","URINE",0.702,"mg/mL","2024-01-25T08:28:40","2024-01-25T08:05:31","PT0.5H",89,"mL"
"PC","S1","S1-03","DrugA","URINE",4.439,"mg/mL","2024-01-25T11:04:15","2024-01-25T08:05:31","PT3H",100,"mL"
"PC","S1","S1-03","DrugA","URINE",1.009,"mg/mL","2024-01-25T14:05:45","2024-01-25T08:05:31","PT6H",115,"mL"
"PC","S1","S1-03","DrugA","URINE",0.108,"mg/mL","2024-01-25T20:06:32","2024-01-25T08:05:31","PT12H",114,"mL"
"PC","S1","S1-03","DrugA","URINE",0.775,"mg/mL","2024-01-26T08:36:54","2024-01-26T08:04:40","PT0.5H",74,"mL"
"PC","S1","S1-03","DrugA","URINE",4.563,"mg/mL","2024-01-26T11:03:32","2024-01-26T08:04:40","PT3H",104,"mL"
"PC","S1","S1-03","DrugA","URINE",0.991,"mg/mL","2024-01-26T14:03:18","2024-01-26T08:04:40","PT6H",83,"mL"
"PC","S1","S1-03","DrugA","URINE",0.051,"mg/mL","2024-01-26T20:07:37","2024-01-26T08:04:40","PT12H",97,"mL"
"PC","S1","S1-03","DrugA","URINE",0.584,"mg/mL","2024-01-27T08:26:27","2024-01-27T08:00:25","PT0.5H",101,"mL"
"PC","S1","S1-03","DrugA","URINE",4.528,"mg/mL","2024-01-27T10:59:20","2024-01-27T08:00:25","PT3H",90,"mL"
"PC","S1","S1-03","DrugA","URINE",1.085,"mg/mL","2024-01-27T14:05:20","2024-01-27T08:00:25","PT6H",88,"mL"
"PC","S1","S1-03","DrugA","URINE",0.097,"mg/mL","2024-01-27T19:57:54","2024-01-27T08:00:25","PT12H",102,"mL"
"PC","S1","S1-03","DrugA","URINE",0.728,"mg/mL","2024-01-28T08:20:49","2024-01-28T07:48:03","PT0.5H",101,"mL"
"PC","S1","S1-03","DrugA","URINE",4.546,"mg/mL","2024-01-28T10:47:09","2024-01-28T07:48:03","PT3H",74,"mL"
"PC","S1","S1-03","DrugA","URINE",1.128,"mg/mL","2024-01-28T13:45:46","2024-01-28T07:48:03","PT6H",86,"mL"
"PC","S1","S1-03","DrugA","URINE",0.155,"mg/mL","2024-01-28T19:45:07","2024-01-28T07:48:03","PT12H",119,"mL"
"PC","S1","S1-03","Metab-DrugA","SERUM",0,"ug/mL","2024-01-21T07:55:01","2024-01-21T08:00:00","PT-0.083H",NA,NA
"PC","S1","S1-03","Metab-DrugA","SERUM",0.194,"ug/mL","2024-01-21T08:27:25","2024-01-21T08:00:00","PT0.5H",NA,NA
"PC","S1","S1-03","Metab-DrugA","SERUM",0.984,"ug/mL","2024-01-21T09:26:38","2024-01-21T08:00:00","PT1.5H",NA,NA
"PC","S1","S1-03","Metab-DrugA","SERUM",0.997,"ug/mL","2024-01-21T09:32:49","2024-01-21T08:00:00","PT1.5H",NA,NA
"PC","S1","S1-03","Metab-DrugA","SERUM",1.743,"ug/mL","2024-01-21T11:03:14","2024-01-21T08:00:00","PT3H",NA,NA
"PC","S1","S1-03","Metab-DrugA","SERUM",0.844,"ug/mL","2024-01-21T12:30:00","2024-01-21T08:00:00","PT4.5H",NA,NA
"PC","S1","S1-03","Metab-DrugA","SERUM",0.394,"ug/mL","2024-01-21T14:02:02","2024-01-21T08:00:00","PT6H",NA,NA
"PC","S1","S1-03","Metab-DrugA","SERUM",0.1,"ug/mL","2024-01-21T15:34:12","2024-01-21T08:00:00","PT7.5H",NA,NA
"PC","S1","S1-03","Metab-DrugA","SERUM",0,"ug/mL","2024-01-21T20:00:00","2024-01-21T08:00:00","PT12H",NA,NA
"PC","S1","S1-03","Metab-DrugA","SERUM",0,"ug/mL","2024-01-22T08:00:39","2024-01-22T08:05:38","PT-0.083H",NA,NA
"PC","S1","S1-03","Metab-DrugA","SERUM",0.365,"ug/mL","2024-01-22T08:43:33","2024-01-22T08:05:38","PT0.5H",NA,NA
"PC","S1","S1-03","Metab-DrugA","SERUM",0.84,"ug/mL","2024-01-22T09:33:21","2024-01-22T08:05:38","PT1.5H",NA,NA
"PC","S1","S1-03","Metab-DrugA","SERUM",0.959,"ug/mL","2024-01-22T09:35:38","2024-01-22T08:05:38","PT1.5H",NA,NA
"PC","S1","S1-03","Metab-DrugA","SERUM",1.753,"ug/mL","2024-01-22T11:11:20","2024-01-22T08:05:38","PT3H",NA,NA
"PC","S1","S1-03","Metab-DrugA","SERUM",0.886,"ug/mL","2024-01-22T12:36:28","2024-01-22T08:05:38","PT4.5H",NA,NA
"PC","S1","S1-03","Metab-DrugA","SERUM",0.466,"ug/mL","2024-01-22T14:06:03","2024-01-22T08:05:38","PT6H",NA,NA
"PC","S1","S1-03","Metab-DrugA","SERUM",0.174,"ug/mL","2024-01-22T15:32:31","2024-01-22T08:05:38","PT7.5H",NA,NA
"PC","S1","S1-03","Metab-DrugA","SERUM",0.004,"ug/mL","2024-01-22T20:07:08","2024-01-22T08:05:38","PT12H",NA,NA
"PC","S1","S1-03","Metab-DrugA","SERUM",0.007,"ug/mL","2024-01-23T07:59:56","2024-01-23T08:04:55","PT-0.083H",NA,NA
"PC","S1","S1-03","Metab-DrugA","SERUM",0.343,"ug/mL","2024-01-23T08:35:24","2024-01-23T08:04:55","PT0.5H",NA,NA
"PC","S1","S1-03","Metab-DrugA","SERUM",0.81,"ug/mL","2024-01-23T09:33:50","2024-01-23T08:04:55","PT1.5H",NA,NA
"PC","S1","S1-03","Metab-DrugA","SERUM",0.921,"ug/mL","2024-01-23T09:41:09","2024-01-23T08:04:55","PT1.5H",NA,NA
"PC","S1","S1-03","Metab-DrugA","SERUM",1.786,"ug/mL","2024-01-23T11:03:07","2024-01-23T08:04:55","PT3H",NA,NA
"PC","S1","S1-03","Metab-DrugA","SERUM",0.937,"ug/mL","2024-01-23T12:32:49","2024-01-23T08:04:55","PT4.5H",NA,NA
"PC","S1","S1-03","Metab-DrugA","SERUM",0.542,"ug/mL","2024-01-23T14:01:19","2024-01-23T08:04:55","PT6H",NA,NA
"PC","S1","S1-03","Metab-DrugA","SERUM",0.179,"ug/mL","2024-01-23T15:28:33","2024-01-23T08:04:55","PT7.5H",NA,NA
"PC","S1","S1-03","Metab-DrugA","SERUM",0,"ug/mL","2024-01-23T20:01:40","2024-01-23T08:04:55","PT12H",NA,NA
"PC","S1","S1-03","Metab-DrugA","SERUM",0,"ug/mL","2024-01-24T07:58:33","2024-01-24T08:03:32","PT-0.083H",NA,NA
"PC","S1","S1-03","Metab-DrugA","SERUM",0.302,"ug/mL","2024-01-24T08:36:57","2024-01-24T08:03:32","PT0.5H",NA,NA
"PC","S1","S1-03","Metab-DrugA","SERUM",0.984,"ug/mL","2024-01-24T09:31:58","2024-01-24T08:03:32","PT1.5H",NA,NA
"PC","S1","S1-03","Metab-DrugA","SERUM",0.914,"ug/mL","2024-01-24T09:33:36","2024-01-24T08:03:32","PT1.5H",NA,NA
"PC","S1","S1-03","Metab-DrugA","SERUM",1.757,"ug/mL","2024-01-24T11:02:20","2024-01-24T08:03:32","PT3H",NA,NA
"PC","S1","S1-03","Metab-DrugA","SERUM",0.787,"ug/mL","2024-01-24T12:35:24","2024-01-24T08:03:32","PT4.5H",NA,NA
"PC","S1","S1-03","Metab-DrugA","SERUM",0.393,"ug/mL","2024-01-24T14:07:01","2024-01-24T08:03:32","PT6H",NA,NA
"PC","S1","S1-03","Metab-DrugA","SERUM",0.263,"ug/mL","2024-01-24T15:35:49","2024-01-24T08:03:32","PT7.5H",NA,NA
"PC","S1","S1-03","Metab-DrugA","SERUM",0.085,"ug/mL","2024-01-24T20:05:38","2024-01-24T08:03:32","PT12H",NA,NA
"PC","S1","S1-03","Metab-DrugA","SERUM",0.123,"ug/mL","2024-01-25T08:00:28","2024-01-25T08:05:31","PT-0.083H",NA,NA
"PC","S1","S1-03","Metab-DrugA","SERUM",0.176,"ug/mL","2024-01-25T08:28:40","2024-01-25T08:05:31","PT0.5H",NA,NA
"PC","S1","S1-03","Metab-DrugA","SERUM",0.83,"ug/mL","2024-01-25T09:31:40","2024-01-25T08:05:31","PT1.5H",NA,NA
"PC","S1","S1-03","Metab-DrugA","SERUM",1.018,"ug/mL","2024-01-25T09:37:44","2024-01-25T08:05:31","PT1.5H",NA,NA
"PC","S1","S1-03","Metab-DrugA","SERUM",1.777,"ug/mL","2024-01-25T11:04:15","2024-01-25T08:05:31","PT3H",NA,NA
"PC","S1","S1-03","Metab-DrugA","SERUM",0.871,"ug/mL","2024-01-25T12:39:57","2024-01-25T08:05:31","PT4.5H",NA,NA
"PC","S1","S1-03","Metab-DrugA","SERUM",0.388,"ug/mL","2024-01-25T14:05:45","2024-01-25T08:05:31","PT6H",NA,NA
"PC","S1","S1-03","Metab-DrugA","SERUM",0.102,"ug/mL","2024-01-25T15:33:03","2024-01-25T08:05:31","PT7.5H",NA,NA
"PC","S1","S1-03","Metab-DrugA","SERUM",0,"ug/mL","2024-01-25T20:06:32","2024-01-25T08:05:31","PT12H",NA,NA
"PC","S1","S1-03","Metab-DrugA","SERUM",0.095,"ug/mL","2024-01-26T07:59:34","2024-01-26T08:04:40","PT-0.083H",NA,NA
"PC","S1","S1-03","Metab-DrugA","SERUM",0.328,"ug/mL","2024-01-26T08:36:54","2024-01-26T08:04:40","PT0.5H",NA,NA
"PC","S1","S1-03","Metab-DrugA","SERUM",0.954,"ug/mL","2024-01-26T09:29:45","2024-01-26T08:04:40","PT1.5H",NA,NA
"PC","S1","S1-03","Metab-DrugA","SERUM",0.907,"ug/mL","2024-01-26T09:31:30","2024-01-26T08:04:40","PT1.5H",NA,NA
"PC","S1","S1-03","Metab-DrugA","SERUM",1.878,"ug/mL","2024-01-26T11:03:32","2024-01-26T08:04:40","PT3H",NA,NA
"PC","S1","S1-03","Metab-DrugA","SERUM",0.892,"ug/mL","2024-01-26T12:37:55","2024-01-26T08:04:40","PT4.5H",NA,NA
"PC","S1","S1-03","Metab-DrugA","SERUM",0.329,"ug/mL","2024-01-26T14:03:18","2024-01-26T08:04:40","PT6H",NA,NA
"PC","S1","S1-03","Metab-DrugA","SERUM",0.136,"ug/mL","2024-01-26T15:33:21","2024-01-26T08:04:40","PT7.5H",NA,NA
"PC","S1","S1-03","Metab-DrugA","SERUM",0.008,"ug/mL","2024-01-26T20:07:37","2024-01-26T08:04:40","PT12H",NA,NA
"PC","S1","S1-03","Metab-DrugA","SERUM",0,"ug/mL","2024-01-27T07:55:30","2024-01-27T08:00:25","PT-0.083H",NA,NA
"PC","S1","S1-03","Metab-DrugA","SERUM",0.226,"ug/mL","2024-01-27T08:26:27","2024-01-27T08:00:25","PT0.5H",NA,NA
"PC","S1","S1-03","Metab-DrugA","SERUM",0.82,"ug/mL","2024-01-27T09:31:08","2024-01-27T08:00:25","PT1.5H",NA,NA
"PC","S1","S1-03","Metab-DrugA","SERUM",0.826,"ug/mL","2024-01-27T09:31:48","2024-01-27T08:00:25","PT1.5H",NA,NA
"PC","S1","S1-03","Metab-DrugA","SERUM",1.841,"ug/mL","2024-01-27T10:59:20","2024-01-27T08:00:25","PT3H",NA,NA
"PC","S1","S1-03","Metab-DrugA","SERUM",0.928,"ug/mL","2024-01-27T12:27:57","2024-01-27T08:00:25","PT4.5H",NA,NA
"PC","S1","S1-03","Metab-DrugA","SERUM",0.484,"ug/mL","2024-01-27T14:05:20","2024-01-27T08:00:25","PT6H",NA,NA
"PC","S1","S1-03","Metab-DrugA","SERUM",0.159,"ug/mL","2024-01-27T15:33:07","2024-01-27T08:00:25","PT7.5H",NA,NA
"PC","S1","S1-03","Metab-DrugA","SERUM",0.004,"ug/mL","2024-01-27T19:57:54","2024-01-27T08:00:25","PT12H",NA,NA
"PC","S1","S1-03","Metab-DrugA","SERUM",0,"ug/mL","2024-01-28T07:43:08","2024-01-28T07:48:03","PT-0.083H",NA,NA
"PC","S1","S1-03","Metab-DrugA","SERUM",0.259,"ug/mL","2024-01-28T08:20:49","2024-01-28T07:48:03","PT0.5H",NA,NA
"PC","S1","S1-03","Metab-DrugA","SERUM",0.931,"ug/mL","2024-01-28T09:17:13","2024-01-28T07:48:03","PT1.5H",NA,NA
"PC","S1","S1-03","Metab-DrugA","SERUM",0.901,"ug/mL","2024-01-28T09:18:00","2024-01-28T07:48:03","PT1.5H",NA,NA
"PC","S1","S1-03","Metab-DrugA","SERUM",1.851,"ug/mL","2024-01-28T10:47:09","2024-01-28T07:48:03","PT3H",NA,NA
"PC","S1","S1-03","Metab-DrugA","SERUM",0.885,"ug/mL","2024-01-28T12:13:12","2024-01-28T07:48:03","PT4.5H",NA,NA
"PC","S1","S1-03","Metab-DrugA","SERUM",0.468,"ug/mL","2024-01-28T13:45:46","2024-01-28T07:48:03","PT6H",NA,NA
"PC","S1","S1-03","Metab-DrugA","SERUM",0.259,"ug/mL","2024-01-28T15:15:46","2024-01-28T07:48:03","PT7.5H",NA,NA
"PC","S1","S1-03","Metab-DrugA","SERUM",0.039,"ug/mL","2024-01-28T19:45:07","2024-01-28T07:48:03","PT12H",NA,NA
"PC","S1","S1-04","DrugA","SERUM",0.017,"ug/mL","2024-01-24T07:54:57","2024-01-24T08:00:00","PT-0.083H",NA,NA
"PC","S1","S1-04","DrugA","SERUM",1.639,"ug/mL","2024-01-24T08:31:12","2024-01-24T08:00:00","PT0.5H",NA,NA
"PC","S1","S1-04","DrugA","SERUM",3.796,"ug/mL","2024-01-24T09:23:13","2024-01-24T08:00:00","PT1.5H",NA,NA
"PC","S1","S1-04","DrugA","SERUM",4.008,"ug/mL","2024-01-24T09:29:02","2024-01-24T08:00:00","PT1.5H",NA,NA
"PC","S1","S1-04","DrugA","SERUM",8.203,"ug/mL","2024-01-24T11:04:19","2024-01-24T08:00:00","PT3H",NA,NA
"PC","S1","S1-04","DrugA","SERUM",3.904,"ug/mL","2024-01-24T12:29:42","2024-01-24T08:00:00","PT4.5H",NA,NA
"PC","S1","S1-04","DrugA","SERUM",1.863,"ug/mL","2024-01-24T14:00:54","2024-01-24T08:00:00","PT6H",NA,NA
"PC","S1","S1-04","DrugA","SERUM",0.84,"ug/mL","2024-01-24T15:28:58","2024-01-24T08:00:00","PT7.5H",NA,NA
"PC","S1","S1-04","DrugA","SERUM",0.172,"ug/mL","2024-01-24T19:54:39","2024-01-24T08:00:00","PT12H",NA,NA
"PC","S1","S1-04","DrugA","SERUM",0.008,"ug/mL","2024-01-25T07:54:32","2024-01-25T07:59:38","PT-0.083H",NA,NA
"PC","S1","S1-04","DrugA","SERUM",1.416,"ug/mL","2024-01-25T08:28:26","2024-01-25T07:59:38","PT0.5H",NA,NA
"PC","S1","S1-04","DrugA","SERUM",4.078,"ug/mL","2024-01-25T09:25:26","2024-01-25T07:59:38","PT1.5H",NA,NA
"PC","S1","S1-04","DrugA","SERUM",4.019,"ug/mL","2024-01-25T09:26:52","2024-01-25T07:59:38","PT1.5H",NA,NA
"PC","S1","S1-04","DrugA","SERUM",8.137,"ug/mL","2024-01-25T10:57:32","2024-01-25T07:59:38","PT3H",NA,NA
"PC","S1","S1-04","DrugA","SERUM",3.882,"ug/mL","2024-01-25T12:30:57","2024-01-25T07:59:38","PT4.5H",NA,NA
"PC","S1","S1-04","DrugA","SERUM",1.914,"ug/mL","2024-01-25T14:03:28","2024-01-25T07:59:38","PT6H",NA,NA
"PC","S1","S1-04","DrugA","SERUM",0.797,"ug/mL","2024-01-25T15:34:08","2024-01-25T07:59:38","PT7.5H",NA,NA
"PC","S1","S1-04","DrugA","SERUM",0.037,"ug/mL","2024-01-25T19:58:40","2024-01-25T07:59:38","PT12H",NA,NA
"PC","S1","S1-04","DrugA","SERUM",0,"ug/mL","2024-01-26T07:54:03","2024-01-26T07:59:02","PT-0.083H",NA,NA
"PC","S1","S1-04","DrugA","SERUM",1.534,"ug/mL","2024-01-26T08:33:00","2024-01-26T07:59:02","PT0.5H",NA,NA
"PC","S1","S1-04","DrugA","SERUM",3.997,"ug/mL","2024-01-26T09:24:36","2024-01-26T07:59:02","PT1.5H",NA,NA
"PC","S1","S1-04","DrugA","SERUM",4.428,"ug/mL","2024-01-26T09:31:48","2024-01-26T07:59:02","PT1.5H",NA,NA
"PC","S1","S1-04","DrugA","SERUM",8.363,"ug/mL","2024-01-26T10:57:54","2024-01-26T07:59:02","PT3H",NA,NA
"PC","S1","S1-04","DrugA","SERUM",3.871,"ug/mL","2024-01-26T12:33:07","2024-01-26T07:59:02","PT4.5H",NA,NA
"PC","S1","S1-04","DrugA","SERUM",1.671,"ug/mL","2024-01-26T14:00:50","2024-01-26T07:59:02","PT6H",NA,NA
"PC","S1","S1-04","DrugA","SERUM",0.916,"ug/mL","2024-01-26T15:30:36","2024-01-26T07:59:02","PT7.5H",NA,NA
"PC","S1","S1-04","DrugA","SERUM",0.268,"ug/mL","2024-01-26T19:55:01","2024-01-26T07:59:02","PT12H",NA,NA
"PC","S1","S1-04","DrugA","SERUM",0.056,"ug/mL","2024-01-27T07:46:12","2024-01-27T07:51:10","PT-0.083H",NA,NA
"PC","S1","S1-04","DrugA","SERUM",1.206,"ug/mL","2024-01-27T08:19:04","2024-01-27T07:51:10","PT0.5H",NA,NA
"PC","S1","S1-04","DrugA","SERUM",3.954,"ug/mL","2024-01-27T09:17:56","2024-01-27T07:51:10","PT1.5H",NA,NA
"PC","S1","S1-04","DrugA","SERUM",4.136,"ug/mL","2024-01-27T09:20:34","2024-01-27T07:51:10","PT1.5H",NA,NA
"PC","S1","S1-04","DrugA","SERUM",8.266,"ug/mL","2024-01-27T10:53:09","2024-01-27T07:51:10","PT3H",NA,NA
"PC","S1","S1-04","DrugA","SERUM",4.21,"ug/mL","2024-01-27T12:17:13","2024-01-27T07:51:10","PT4.5H",NA,NA
"PC","S1","S1-04","DrugA","SERUM",2.044,"ug/mL","2024-01-27T13:50:16","2024-01-27T07:51:10","PT6H",NA,NA
"PC","S1","S1-04","DrugA","SERUM",0.895,"ug/mL","2024-01-27T15:22:48","2024-01-27T07:51:10","PT7.5H",NA,NA
"PC","S1","S1-04","DrugA","SERUM",0.157,"ug/mL","2024-01-27T19:53:13","2024-01-27T07:51:10","PT12H",NA,NA
"PC","S1","S1-04","DrugA","SERUM",0,"ug/mL","2024-01-28T07:52:01","2024-01-28T07:57:07","PT-0.083H",NA,NA
"PC","S1","S1-04","DrugA","SERUM",1.364,"ug/mL","2024-01-28T08:25:22","2024-01-28T07:57:07","PT0.5H",NA,NA
"PC","S1","S1-04","DrugA","SERUM",4.253,"ug/mL","2024-01-28T09:29:31","2024-01-28T07:57:07","PT1.5H",NA,NA
"PC","S1","S1-04","DrugA","SERUM",4.101,"ug/mL","2024-01-28T09:30:07","2024-01-28T07:57:07","PT1.5H",NA,NA
"PC","S1","S1-04","DrugA","SERUM",8.304,"ug/mL","2024-01-28T11:00:28","2024-01-28T07:57:07","PT3H",NA,NA
"PC","S1","S1-04","DrugA","SERUM",4.111,"ug/mL","2024-01-28T12:28:12","2024-01-28T07:57:07","PT4.5H",NA,NA
"PC","S1","S1-04","DrugA","SERUM",1.817,"ug/mL","2024-01-28T13:55:51","2024-01-28T07:57:07","PT6H",NA,NA
"PC","S1","S1-04","DrugA","SERUM",1.073,"ug/mL","2024-01-28T15:26:42","2024-01-28T07:57:07","PT7.5H",NA,NA
"PC","S1","S1-04","DrugA","SERUM",0.05,"ug/mL","2024-01-28T19:57:21","2024-01-28T07:57:07","PT12H",NA,NA
"PC","S1","S1-04","DrugA","SERUM",0,"ug/mL","2024-01-29T07:57:32","2024-01-29T08:02:31","PT-0.083H",NA,NA
"PC","S1","S1-04","DrugA","SERUM",1.298,"ug/mL","2024-01-29T08:29:31","2024-01-29T08:02:31","PT0.5H",NA,NA
"PC","S1","S1-04","DrugA","SERUM",3.866,"ug/mL","2024-01-29T09:30:39","2024-01-29T08:02:31","PT1.5H",NA,NA
"PC","S1","S1-04","DrugA","SERUM",4.322,"ug/mL","2024-01-29T09:38:09","2024-01-29T08:02:31","PT1.5H",NA,NA
"PC","S1","S1-04","DrugA","SERUM",8.139,"ug/mL","2024-01-29T11:00:10","2024-01-29T08:02:31","PT3H",NA,NA
"PC","S1","S1-04","DrugA","SERUM",4.032,"ug/mL","2024-01-29T12:33:14","2024-01-29T08:02:31","PT4.5H",NA,NA
"PC","S1","S1-04","DrugA","SERUM",1.9,"ug/mL","2024-01-29T14:03:36","2024-01-29T08:02:31","PT6H",NA,NA
"PC","S1","S1-04","DrugA","SERUM",0.906,"ug/mL","2024-01-29T15:29:06","2024-01-29T08:02:31","PT7.5H",NA,NA
"PC","S1","S1-04","DrugA","SERUM",0.078,"ug/mL","2024-01-29T20:09:03","2024-01-29T08:02:31","PT12H",NA,NA
"PC","S1","S1-04","DrugA","SERUM",0,"ug/mL","2024-01-30T08:03:07","2024-01-30T08:08:09","PT-0.083H",NA,NA
"PC","S1","S1-04","DrugA","SERUM",1.221,"ug/mL","2024-01-30T08:36:10","2024-01-30T08:08:09","PT0.5H",NA,NA
"PC","S1","S1-04","DrugA","SERUM",3.968,"ug/mL","2024-01-30T09:34:01","2024-01-30T08:08:09","PT1.5H",NA,NA
"PC","S1","S1-04","DrugA","SERUM",4.313,"ug/mL","2024-01-30T09:42:36","2024-01-30T08:08:09","PT1.5H",NA,NA
"PC","S1","S1-04","DrugA","SERUM",8.217,"ug/mL","2024-01-30T11:06:39","2024-01-30T08:08:09","PT3H",NA,NA
"PC","S1","S1-04","DrugA","SERUM",4.015,"ug/mL","2024-01-30T12:41:45","2024-01-30T08:08:09","PT4.5H",NA,NA
"PC","S1","S1-04","DrugA","SERUM",2.026,"ug/mL","2024-01-30T14:09:43","2024-01-30T08:08:09","PT6H",NA,NA
"PC","S1","S1-04","DrugA","SERUM",0.961,"ug/mL","2024-01-30T15:33:39","2024-01-30T08:08:09","PT7.5H",NA,NA
"PC","S1","S1-04","DrugA","SERUM",0.026,"ug/mL","2024-01-30T20:04:40","2024-01-30T08:08:09","PT12H",NA,NA
"PC","S1","S1-04","DrugA","SERUM",0.014,"ug/mL","2024-01-31T07:54:21","2024-01-31T07:59:24","PT-0.083H",NA,NA
"PC","S1","S1-04","DrugA","SERUM",1.546,"ug/mL","2024-01-31T08:32:13","2024-01-31T07:59:24","PT0.5H",NA,NA
"PC","S1","S1-04","DrugA","SERUM",4.228,"ug/mL","2024-01-31T09:31:26","2024-01-31T07:59:24","PT1.5H",NA,NA
"PC","S1","S1-04","DrugA","SERUM",4.35,"ug/mL","2024-01-31T09:34:58","2024-01-31T07:59:24","PT1.5H",NA,NA
"PC","S1","S1-04","DrugA","SERUM",8.386,"ug/mL","2024-01-31T11:00:57","2024-01-31T07:59:24","PT3H",NA,NA
"PC","S1","S1-04","DrugA","SERUM",4.008,"ug/mL","2024-01-31T12:29:20","2024-01-31T07:59:24","PT4.5H",NA,NA
"PC","S1","S1-04","DrugA","SERUM",1.829,"ug/mL","2024-01-31T13:59:27","2024-01-31T07:59:24","PT6H",NA,NA
"PC","S1","S1-04","DrugA","SERUM",0.975,"ug/mL","2024-01-31T15:28:44","2024-01-31T07:59:24","PT7.5H",NA,NA
"PC","S1","S1-04","DrugA","SERUM",0.08,"ug/mL","2024-01-31T20:02:56","2024-01-31T07:59:24","PT12H",NA,NA
"PC","S1","S1-04","DrugA","URINE",1.639,"mg/mL","2024-01-24T08:31:12","2024-01-24T08:00:00","PT0.5H",91,"mL"
"PC","S1","S1-04","DrugA","URINE",8.203,"mg/mL","2024-01-24T11:04:19","2024-01-24T08:00:00","PT3H",108,"mL"
"PC","S1","S1-04","DrugA","URINE",1.863,"mg/mL","2024-01-24T14:00:54","2024-01-24T08:00:00","PT6H",97,"mL"
"PC","S1","S1-04","DrugA","URINE",0.172,"mg/mL","2024-01-24T19:54:39","2024-01-24T08:00:00","PT12H",90,"mL"
"PC","S1","S1-04","DrugA","URINE",1.416,"mg/mL","2024-01-25T08:28:26","2024-01-25T07:59:38","PT0.5H",101,"mL"
"PC","S1","S1-04","DrugA","URINE",8.137,"mg/mL","2024-01-25T10:57:32","2024-01-25T07:59:38","PT3H",103,"mL"
"PC","S1","S1-04","DrugA","URINE",1.914,"mg/mL","2024-01-25T14:03:28","2024-01-25T07:59:38","PT6H",112,"mL"
"PC","S1","S1-04","DrugA","URINE",0.037,"mg/mL","2024-01-25T19:58:40","2024-01-25T07:59:38","PT12H",97,"mL"
"PC","S1","S1-04","DrugA","URINE",1.534,"mg/mL","2024-01-26T08:33:00","2024-01-26T07:59:02","PT0.5H",87,"mL"
"PC","S1","S1-04","DrugA","URINE",8.363,"mg/mL","2024-01-26T10:57:54","2024-01-26T07:59:02","PT3H",81,"mL"
"PC","S1","S1-04","DrugA","URINE",1.671,"mg/mL","2024-01-26T14:00:50","2024-01-26T07:59:02","PT6H",62,"mL"
"PC","S1","S1-04","DrugA","URINE",0.268,"mg/mL","2024-01-26T19:55:01","2024-01-26T07:59:02","PT12H",108,"mL"
"PC","S1","S1-04","DrugA","URINE",1.206,"mg/mL","2024-01-27T08:19:04","2024-01-27T07:51:10","PT0.5H",100,"mL"
"PC","S1","S1-04","DrugA","URINE",8.266,"mg/mL","2024-01-27T10:53:09","2024-01-27T07:51:10","PT3H",116,"mL"
"PC","S1","S1-04","DrugA","URINE",2.044,"mg/mL","2024-01-27T13:50:16","2024-01-27T07:51:10","PT6H",92,"mL"
"PC","S1","S1-04","DrugA","URINE",0.157,"mg/mL","2024-01-27T19:53:13","2024-01-27T07:51:10","PT12H",110,"mL"
"PC","S1","S1-04","DrugA","URINE",1.364,"mg/mL","2024-01-28T08:25:22","2024-01-28T07:57:07","PT0.5H",107,"mL"
"PC","S1","S1-04","DrugA","URINE",8.304,"mg/mL","2024-01-28T11:00:28","2024-01-28T07:57:07","PT3H",82,"mL"
"PC","S1","S1-04","DrugA","URINE",1.817,"mg/mL","2024-01-28T13:55:51","2024-01-28T07:57:07","PT6H",100,"mL"
"PC","S1","S1-04","DrugA","URINE",0.05,"mg/mL","2024-01-28T19:57:21","2024-01-28T07:57:07","PT12H",124,"mL"
"PC","S1","S1-04","DrugA","URINE",1.298,"mg/mL","2024-01-29T08:29:31","2024-01-29T08:02:31","PT0.5H",85,"mL"
"PC","S1","S1-04","DrugA","URINE",8.139,"mg/mL","2024-01-29T11:00:10","2024-01-29T08:02:31","PT3H",101,"mL"
"PC","S1","S1-04","DrugA","URINE",1.9,"mg/mL","2024-01-29T14:03:36","2024-01-29T08:02:31","PT6H",110,"mL"
"PC","S1","S1-04","DrugA","URINE",0.078,"mg/mL","2024-01-29T20:09:03","2024-01-29T08:02:31","PT12H",97,"mL"
"PC","S1","S1-04","DrugA","URINE",1.221,"mg/mL","2024-01-30T08:36:10","2024-01-30T08:08:09","PT0.5H",111,"mL"
"PC","S1","S1-04","DrugA","URINE",8.217,"mg/mL","2024-01-30T11:06:39","2024-01-30T08:08:09","PT3H",108,"mL"
"PC","S1","S1-04","DrugA","URINE",2.026,"mg/mL","2024-01-30T14:09:43","2024-01-30T08:08:09","PT6H",87,"mL"
"PC","S1","S1-04","DrugA","URINE",0.026,"mg/mL","2024-01-30T20:04:40","2024-01-30T08:08:09","PT12H",102,"mL"
"PC","S1","S1-04","DrugA","URINE",1.546,"mg/mL","2024-01-31T08:32:13","2024-01-31T07:59:24","PT0.5H",96,"mL"
"PC","S1","S1-04","DrugA","URINE",8.386,"mg/mL","2024-01-31T11:00:57","2024-01-31T07:59:24","PT3H",107,"mL"
"PC","S1","S1-04","DrugA","URINE",1.829,"mg/mL","2024-01-31T13:59:27","2024-01-31T07:59:24","PT6H",83,"mL"
"PC","S1","S1-04","DrugA","URINE",0.08,"mg/mL","2024-01-31T20:02:56","2024-01-31T07:59:24","PT12H",98,"mL"
"PC","S1","S1-04","Metab-DrugA","SERUM",0,"ug/mL","2024-01-24T07:54:57","2024-01-24T08:00:00","PT-0.083H",NA,NA
"PC","S1","S1-04","Metab-DrugA","SERUM",0.62,"ug/mL","2024-01-24T08:31:12","2024-01-24T08:00:00","PT0.5H",NA,NA
"PC","S1","S1-04","Metab-DrugA","SERUM",1.51,"ug/mL","2024-01-24T09:23:13","2024-01-24T08:00:00","PT1.5H",NA,NA
"PC","S1","S1-04","Metab-DrugA","SERUM",1.702,"ug/mL","2024-01-24T09:29:02","2024-01-24T08:00:00","PT1.5H",NA,NA
"PC","S1","S1-04","Metab-DrugA","SERUM",3.261,"ug/mL","2024-01-24T11:04:19","2024-01-24T08:00:00","PT3H",NA,NA
"PC","S1","S1-04","Metab-DrugA","SERUM",1.624,"ug/mL","2024-01-24T12:29:42","2024-01-24T08:00:00","PT4.5H",NA,NA
"PC","S1","S1-04","Metab-DrugA","SERUM",0.746,"ug/mL","2024-01-24T14:00:54","2024-01-24T08:00:00","PT6H",NA,NA
"PC","S1","S1-04","Metab-DrugA","SERUM",0.426,"ug/mL","2024-01-24T15:28:58","2024-01-24T08:00:00","PT7.5H",NA,NA
"PC","S1","S1-04","Metab-DrugA","SERUM",0.047,"ug/mL","2024-01-24T19:54:39","2024-01-24T08:00:00","PT12H",NA,NA
"PC","S1","S1-04","Metab-DrugA","SERUM",0,"ug/mL","2024-01-25T07:54:32","2024-01-25T07:59:38","PT-0.083H",NA,NA
"PC","S1","S1-04","Metab-DrugA","SERUM",0.579,"ug/mL","2024-01-25T08:28:26","2024-01-25T07:59:38","PT0.5H",NA,NA
"PC","S1","S1-04","Metab-DrugA","SERUM",1.553,"ug/mL","2024-01-25T09:25:26","2024-01-25T07:59:38","PT1.5H",NA,NA
"PC","S1","S1-04","Metab-DrugA","SERUM",1.634,"ug/mL","2024-01-25T09:26:52","2024-01-25T07:59:38","PT1.5H",NA,NA
"PC","S1","S1-04","Metab-DrugA","SERUM",3.194,"ug/mL","2024-01-25T10:57:32","2024-01-25T07:59:38","PT3H",NA,NA
"PC","S1","S1-04","Metab-DrugA","SERUM",1.584,"ug/mL","2024-01-25T12:30:57","2024-01-25T07:59:38","PT4.5H",NA,NA
"PC","S1","S1-04","Metab-DrugA","SERUM",0.743,"ug/mL","2024-01-25T14:03:28","2024-01-25T07:59:38","PT6H",NA,NA
"PC","S1","S1-04","Metab-DrugA","SERUM",0.331,"ug/mL","2024-01-25T15:34:08","2024-01-25T07:59:38","PT7.5H",NA,NA
"PC","S1","S1-04","Metab-DrugA","SERUM",0,"ug/mL","2024-01-25T19:58:40","2024-01-25T07:59:38","PT12H",NA,NA
"PC","S1","S1-04","Metab-DrugA","SERUM",0,"ug/mL","2024-01-26T07:54:03","2024-01-26T07:59:02","PT-0.083H",NA,NA
"PC","S1","S1-04","Metab-DrugA","SERUM",0.628,"ug/mL","2024-01-26T08:33:00","2024-01-26T07:59:02","PT0.5H",NA,NA
"PC","S1","S1-04","Metab-DrugA","SERUM",1.542,"ug/mL","2024-01-26T09:24:36","2024-01-26T07:59:02","PT1.5H",NA,NA
"PC","S1","S1-04","Metab-DrugA","SERUM",1.738,"ug/mL","2024-01-26T09:31:48","2024-01-26T07:59:02","PT1.5H",NA,NA
"PC","S1","S1-04","Metab-DrugA","SERUM",3.333,"ug/mL","2024-01-26T10:57:54","2024-01-26T07:59:02","PT3H",NA,NA
"PC","S1","S1-04","Metab-DrugA","SERUM",1.479,"ug/mL","2024-01-26T12:33:07","2024-01-26T07:59:02","PT4.5H",NA,NA
"PC","S1","S1-04","Metab-DrugA","SERUM",0.794,"ug/mL","2024-01-26T14:00:50","2024-01-26T07:59:02","PT6H",NA,NA
"PC","S1","S1-04","Metab-DrugA","SERUM",0.266,"ug/mL","2024-01-26T15:30:36","2024-01-26T07:59:02","PT7.5H",NA,NA
"PC","S1","S1-04","Metab-DrugA","SERUM",0.066,"ug/mL","2024-01-26T19:55:01","2024-01-26T07:59:02","PT12H",NA,NA
"PC","S1","S1-04","Metab-DrugA","SERUM",0,"ug/mL","2024-01-27T07:46:12","2024-01-27T07:51:10","PT-0.083H",NA,NA
"PC","S1","S1-04","Metab-DrugA","SERUM",0.431,"ug/mL","2024-01-27T08:19:04","2024-01-27T07:51:10","PT0.5H",NA,NA
"PC","S1","S1-04","Metab-DrugA","SERUM",1.587,"ug/mL","2024-01-27T09:17:56","2024-01-27T07:51:10","PT1.5H",NA,NA
"PC","S1","S1-04","Metab-DrugA","SERUM",1.762,"ug/mL","2024-01-27T09:20:34","2024-01-27T07:51:10","PT1.5H",NA,NA
"PC","S1","S1-04","Metab-DrugA","SERUM",3.382,"ug/mL","2024-01-27T10:53:09","2024-01-27T07:51:10","PT3H",NA,NA
"PC","S1","S1-04","Metab-DrugA","SERUM",1.702,"ug/mL","2024-01-27T12:17:13","2024-01-27T07:51:10","PT4.5H",NA,NA
"PC","S1","S1-04","Metab-DrugA","SERUM",0.747,"ug/mL","2024-01-27T13:50:16","2024-01-27T07:51:10","PT6H",NA,NA
"PC","S1","S1-04","Metab-DrugA","SERUM",0.458,"ug/mL","2024-01-27T15:22:48","2024-01-27T07:51:10","PT7.5H",NA,NA
"PC","S1","S1-04","Metab-DrugA","SERUM",0.029,"ug/mL","2024-01-27T19:53:13","2024-01-27T07:51:10","PT12H",NA,NA
"PC","S1","S1-04","Metab-DrugA","SERUM",0,"ug/mL","2024-01-28T07:52:01","2024-01-28T07:57:07","PT-0.083H",NA,NA
"PC","S1","S1-04","Metab-DrugA","SERUM",0.455,"ug/mL","2024-01-28T08:25:22","2024-01-28T07:57:07","PT0.5H",NA,NA
"PC","S1","S1-04","Metab-DrugA","SERUM",1.646,"ug/mL","2024-01-28T09:29:31","2024-01-28T07:57:07","PT1.5H",NA,NA
"PC","S1","S1-04","Metab-DrugA","SERUM",1.734,"ug/mL","2024-01-28T09:30:07","2024-01-28T07:57:07","PT1.5H",NA,NA
"PC","S1","S1-04","Metab-DrugA","SERUM",3.38,"ug/mL","2024-01-28T11:00:28","2024-01-28T07:57:07","PT3H",NA,NA
"PC","S1","S1-04","Metab-DrugA","SERUM",1.639,"ug/mL","2024-01-28T12:28:12","2024-01-28T07:57:07","PT4.5H",NA,NA
"PC","S1","S1-04","Metab-DrugA","SERUM",0.644,"ug/mL","2024-01-28T13:55:51","2024-01-28T07:57:07","PT6H",NA,NA
"PC","S1","S1-04","Metab-DrugA","SERUM",0.395,"ug/mL","2024-01-28T15:26:42","2024-01-28T07:57:07","PT7.5H",NA,NA
"PC","S1","S1-04","Metab-DrugA","SERUM",0.063,"ug/mL","2024-01-28T19:57:21","2024-01-28T07:57:07","PT12H",NA,NA
"PC","S1","S1-04","Metab-DrugA","SERUM",0,"ug/mL","2024-01-29T07:57:32","2024-01-29T08:02:31","PT-0.083H",NA,NA
"PC","S1","S1-04","Metab-DrugA","SERUM",0.491,"ug/mL","2024-01-29T08:29:31","2024-01-29T08:02:31","PT0.5H",NA,NA
"PC","S1","S1-04","Metab-DrugA","SERUM",1.577,"ug/mL","2024-01-29T09:30:39","2024-01-29T08:02:31","PT1.5H",NA,NA
"PC","S1","S1-04","Metab-DrugA","SERUM",1.736,"ug/mL","2024-01-29T09:38:09","2024-01-29T08:02:31","PT1.5H",NA,NA
"PC","S1","S1-04","Metab-DrugA","SERUM",3.238,"ug/mL","2024-01-29T11:00:10","2024-01-29T08:02:31","PT3H",NA,NA
"PC","S1","S1-04","Metab-DrugA","SERUM",1.727,"ug/mL","2024-01-29T12:33:14","2024-01-29T08:02:31","PT4.5H",NA,NA
"PC","S1","S1-04","Metab-DrugA","SERUM",0.798,"ug/mL","2024-01-29T14:03:36","2024-01-29T08:02:31","PT6H",NA,NA
"PC","S1","S1-04","Metab-DrugA","SERUM",0.412,"ug/mL","2024-01-29T15:29:06","2024-01-29T08:02:31","PT7.5H",NA,NA
"PC","S1","S1-04","Metab-DrugA","SERUM",0.024,"ug/mL","2024-01-29T20:09:03","2024-01-29T08:02:31","PT12H",NA,NA
"PC","S1","S1-04","Metab-DrugA","SERUM",0,"ug/mL","2024-01-30T08:03:07","2024-01-30T08:08:09","PT-0.083H",NA,NA
"PC","S1","S1-04","Metab-DrugA","SERUM",0.52,"ug/mL","2024-01-30T08:36:10","2024-01-30T08:08:09","PT0.5H",NA,NA
"PC","S1","S1-04","Metab-DrugA","SERUM",1.487,"ug/mL","2024-01-30T09:34:01","2024-01-30T08:08:09","PT1.5H",NA,NA
"PC","S1","S1-04","Metab-DrugA","SERUM",1.793,"ug/mL","2024-01-30T09:42:36","2024-01-30T08:08:09","PT1.5H",NA,NA
"PC","S1","S1-04","Metab-DrugA","SERUM",3.26,"ug/mL","2024-01-30T11:06:39","2024-01-30T08:08:09","PT3H",NA,NA
"PC","S1","S1-04","Metab-DrugA","SERUM",1.445,"ug/mL","2024-01-30T12:41:45","2024-01-30T08:08:09","PT4.5H",NA,NA
"PC","S1","S1-04","Metab-DrugA","SERUM",0.732,"ug/mL","2024-01-30T14:09:43","2024-01-30T08:08:09","PT6H",NA,NA
"PC","S1","S1-04","Metab-DrugA","SERUM",0.362,"ug/mL","2024-01-30T15:33:39","2024-01-30T08:08:09","PT7.5H",NA,NA
"PC","S1","S1-04","Metab-DrugA","SERUM",0.13,"ug/mL","2024-01-30T20:04:40","2024-01-30T08:08:09","PT12H",NA,NA
"PC","S1","S1-04","Metab-DrugA","SERUM",0.011,"ug/mL","2024-01-31T07:54:21","2024-01-31T07:59:24","PT-0.083H",NA,NA
"PC","S1","S1-04","Metab-DrugA","SERUM",0.539,"ug/mL","2024-01-31T08:32:13","2024-01-31T07:59:24","PT0.5H",NA,NA
"PC","S1","S1-04","Metab-DrugA","SERUM",1.682,"ug/mL","2024-01-31T09:31:26","2024-01-31T07:59:24","PT1.5H",NA,NA
"PC","S1","S1-04","Metab-DrugA","SERUM",1.698,"ug/mL","2024-01-31T09:34:58","2024-01-31T07:59:24","PT1.5H",NA,NA
"PC","S1","S1-04","Metab-DrugA","SERUM",3.263,"ug/mL","2024-01-31T11:00:57","2024-01-31T07:59:24","PT3H",NA,NA
"PC","S1","S1-04","Metab-DrugA","SERUM",1.585,"ug/mL","2024-01-31T12:29:20","2024-01-31T07:59:24","PT4.5H",NA,NA
"PC","S1","S1-04","Metab-DrugA","SERUM",0.677,"ug/mL","2024-01-31T13:59:27","2024-01-31T07:59:24","PT6H",NA,NA
"PC","S1","S1-04","Metab-DrugA","SERUM",0.484,"ug/mL","2024-01-31T15:28:44","2024-01-31T07:59:24","PT7.5H",NA,NA
"PC","S1","S1-04","Metab-DrugA","SERUM",0.037,"ug/mL","2024-01-31T20:02:56","2024-01-31T07:59:24","PT12H",NA,NA
"PC","S1","S1-05","DrugA","SERUM",0.078,"ug/mL","2024-01-27T07:54:57","2024-01-27T08:00:00","PT-0.083H",NA,NA
"PC","S1","S1-05","DrugA","SERUM",0.712,"ug/mL","2024-01-27T08:31:19","2024-01-27T08:00:00","PT0.5H",NA,NA
"PC","S1","S1-05","DrugA","SERUM",1.977,"ug/mL","2024-01-27T09:31:08","2024-01-27T08:00:00","PT1.5H",NA,NA
"PC","S1","S1-05","DrugA","SERUM",1.845,"ug/mL","2024-01-27T09:31:15","2024-01-27T08:00:00","PT1.5H",NA,NA
"PC","S1","S1-05","DrugA","SERUM",3.562,"ug/mL","2024-01-27T11:03:03","2024-01-27T08:00:00","PT3H",NA,NA
"PC","S1","S1-05","DrugA","SERUM",1.757,"ug/mL","2024-01-27T12:28:55","2024-01-27T08:00:00","PT4.5H",NA,NA
"PC","S1","S1-05","DrugA","SERUM",0.675,"ug/mL","2024-01-27T14:03:57","2024-01-27T08:00:00","PT6H",NA,NA
"PC","S1","S1-05","DrugA","SERUM",0.308,"ug/mL","2024-01-27T15:36:00","2024-01-27T08:00:00","PT7.5H",NA,NA
"PC","S1","S1-05","DrugA","SERUM",0.165,"ug/mL","2024-01-27T19:58:26","2024-01-27T08:00:00","PT12H",NA,NA
"PC","S1","S1-05","DrugA","SERUM",0.079,"ug/mL","2024-01-28T07:54:46","2024-01-28T07:59:42","PT-0.083H",NA,NA
"PC","S1","S1-05","DrugA","SERUM",0.648,"ug/mL","2024-01-28T08:32:42","2024-01-28T07:59:42","PT0.5H",NA,NA
"PC","S1","S1-05","DrugA","SERUM",1.932,"ug/mL","2024-01-28T09:28:58","2024-01-28T07:59:42","PT1.5H",NA,NA
"PC","S1","S1-05","DrugA","SERUM",1.842,"ug/mL","2024-01-28T09:29:06","2024-01-28T07:59:42","PT1.5H",NA,NA
"PC","S1","S1-05","DrugA","SERUM",3.745,"ug/mL","2024-01-28T10:58:55","2024-01-28T07:59:42","PT3H",NA,NA
"PC","S1","S1-05","DrugA","SERUM",1.766,"ug/mL","2024-01-28T12:26:16","2024-01-28T07:59:42","PT4.5H",NA,NA
"PC","S1","S1-05","DrugA","SERUM",0.691,"ug/mL","2024-01-28T13:59:31","2024-01-28T07:59:42","PT6H",NA,NA
"PC","S1","S1-05","DrugA","SERUM",0.364,"ug/mL","2024-01-28T15:30:21","2024-01-28T07:59:42","PT7.5H",NA,NA
"PC","S1","S1-05","DrugA","SERUM",0.151,"ug/mL","2024-01-28T19:55:19","2024-01-28T07:59:42","PT12H",NA,NA
"PC","S1","S1-05","DrugA","SERUM",0,"ug/mL","2024-01-29T07:46:40","2024-01-29T07:51:43","PT-0.083H",NA,NA
"PC","S1","S1-05","DrugA","SERUM",0.641,"ug/mL","2024-01-29T08:20:31","2024-01-29T07:51:43","PT0.5H",NA,NA
"PC","S1","S1-05","DrugA","SERUM",1.944,"ug/mL","2024-01-29T09:24:54","2024-01-29T07:51:43","PT1.5H",NA,NA
"PC","S1","S1-05","DrugA","SERUM",1.967,"ug/mL","2024-01-29T09:26:27","2024-01-29T07:51:43","PT1.5H",NA,NA
"PC","S1","S1-05","DrugA","SERUM",3.773,"ug/mL","2024-01-29T10:47:27","2024-01-29T07:51:43","PT3H",NA,NA
"PC","S1","S1-05","DrugA","SERUM",1.712,"ug/mL","2024-01-29T12:20:09","2024-01-29T07:51:43","PT4.5H",NA,NA
"PC","S1","S1-05","DrugA","SERUM",0.815,"ug/mL","2024-01-29T13:49:37","2024-01-29T07:51:43","PT6H",NA,NA
"PC","S1","S1-05","DrugA","SERUM",0.38,"ug/mL","2024-01-29T15:22:12","2024-01-29T07:51:43","PT7.5H",NA,NA
"PC","S1","S1-05","DrugA","SERUM",0,"ug/mL","2024-01-29T19:53:27","2024-01-29T07:51:43","PT12H",NA,NA
"PC","S1","S1-05","DrugA","SERUM",0.049,"ug/mL","2024-01-30T07:52:26","2024-01-30T07:57:32","PT-0.083H",NA,NA
"PC","S1","S1-05","DrugA","SERUM",0.728,"ug/mL","2024-01-30T08:28:40","2024-01-30T07:57:32","PT0.5H",NA,NA
"PC","S1","S1-05","DrugA","SERUM",1.932,"ug/mL","2024-01-30T09:29:20","2024-01-30T07:57:32","PT1.5H",NA,NA
"PC","S1","S1-05","DrugA","SERUM",1.88,"ug/mL","2024-01-30T09:30:10","2024-01-30T07:57:32","PT1.5H",NA,NA
"PC","S1","S1-05","DrugA","SERUM",3.637,"ug/mL","2024-01-30T11:02:38","2024-01-30T07:57:32","PT3H",NA,NA
"PC","S1","S1-05","DrugA","SERUM",1.822,"ug/mL","2024-01-30T12:26:27","2024-01-30T07:57:32","PT4.5H",NA,NA
"PC","S1","S1-05","DrugA","SERUM",0.765,"ug/mL","2024-01-30T13:59:09","2024-01-30T07:57:32","PT6H",NA,NA
"PC","S1","S1-05","DrugA","SERUM",0.298,"ug/mL","2024-01-30T15:28:33","2024-01-30T07:57:32","PT7.5H",NA,NA
"PC","S1","S1-05","DrugA","SERUM",0.098,"ug/mL","2024-01-30T19:53:13","2024-01-30T07:57:32","PT12H",NA,NA
"PC","S1","S1-05","DrugA","SERUM",0,"ug/mL","2024-01-31T07:52:40","2024-01-31T07:57:39","PT-0.083H",NA,NA
"PC","S1","S1-05","DrugA","SERUM",0.728,"ug/mL","2024-01-31T08:28:22","2024-01-31T07:57:39","PT0.5H",NA,NA
"PC","S1","S1-05","DrugA","SERUM",1.833,"ug/mL","2024-01-31T09:24:07","2024-01-31T07:57:39","PT1.5H",NA,NA
"PC","S1","S1-05","DrugA","SERUM",1.895,"ug/mL","2024-01-31T09:25:48","2024-01-31T07:57:39","PT1.5H",NA,NA
"PC","S1","S1-05","DrugA","SERUM",3.586,"ug/mL","2024-01-31T11:01:58","2024-01-31T07:57:39","PT3H",NA,NA
"PC","S1","S1-05","DrugA","SERUM",1.675,"ug/mL","2024-01-31T12:34:44","2024-01-31T07:57:39","PT4.5H",NA,NA
"PC","S1","S1-05","DrugA","SERUM",0.964,"ug/mL","2024-01-31T13:51:03","2024-01-31T07:57:39","PT6H",NA,NA
"PC","S1","S1-05","DrugA","SERUM",0.306,"ug/mL","2024-01-31T15:26:31","2024-01-31T07:57:39","PT7.5H",NA,NA
"PC","S1","S1-05","DrugA","SERUM",0.057,"ug/mL","2024-01-31T19:54:28","2024-01-31T07:57:39","PT12H",NA,NA
"PC","S1","S1-05","DrugA","SERUM",0,"ug/mL","2024-02-01T07:54:39","2024-02-01T07:59:38","PT-0.083H",NA,NA
"PC","S1","S1-05","DrugA","SERUM",0.644,"ug/mL","2024-02-01T08:25:22","2024-02-01T07:59:38","PT0.5H",NA,NA
"PC","S1","S1-05","DrugA","SERUM",1.954,"ug/mL","2024-02-01T09:29:09","2024-02-01T07:59:38","PT1.5H",NA,NA
"PC","S1","S1-05","DrugA","SERUM",2.039,"ug/mL","2024-02-01T09:36:14","2024-02-01T07:59:38","PT1.5H",NA,NA
"PC","S1","S1-05","DrugA","SERUM",3.726,"ug/mL","2024-02-01T10:57:28","2024-02-01T07:59:38","PT3H",NA,NA
"PC","S1","S1-05","DrugA","SERUM",1.637,"ug/mL","2024-02-01T12:36:57","2024-02-01T07:59:38","PT4.5H",NA,NA
"PC","S1","S1-05","DrugA","SERUM",0.873,"ug/mL","2024-02-01T14:00:50","2024-02-01T07:59:38","PT6H",NA,NA
"PC","S1","S1-05","DrugA","SERUM",0.516,"ug/mL","2024-02-01T15:25:26","2024-02-01T07:59:38","PT7.5H",NA,NA
"PC","S1","S1-05","DrugA","SERUM",0.095,"ug/mL","2024-02-01T19:57:25","2024-02-01T07:59:38","PT12H",NA,NA
"PC","S1","S1-05","DrugA","SERUM",0.01,"ug/mL","2024-02-02T08:01:33","2024-02-02T08:06:36","PT-0.083H",NA,NA
"PC","S1","S1-05","DrugA","SERUM",0.738,"ug/mL","2024-02-02T08:41:56","2024-02-02T08:06:36","PT0.5H",NA,NA
"PC","S1","S1-05","DrugA","SERUM",1.823,"ug/mL","2024-02-02T09:30:50","2024-02-02T08:06:36","PT1.5H",NA,NA
"PC","S1","S1-05","DrugA","SERUM",1.841,"ug/mL","2024-02-02T09:35:49","2024-02-02T08:06:36","PT1.5H",NA,NA
"PC","S1","S1-05","DrugA","SERUM",3.784,"ug/mL","2024-02-02T11:06:25","2024-02-02T08:06:36","PT3H",NA,NA
"PC","S1","S1-05","DrugA","SERUM",1.756,"ug/mL","2024-02-02T12:36:07","2024-02-02T08:06:36","PT4.5H",NA,NA
"PC","S1","S1-05","DrugA","SERUM",0.668,"ug/mL","2024-02-02T14:08:06","2024-02-02T08:06:36","PT6H",NA,NA
"PC","S1","S1-05","DrugA","SERUM",0.485,"ug/mL","2024-02-02T15:44:38","2024-02-02T08:06:36","PT7.5H",NA,NA
"PC","S1","S1-05","DrugA","SERUM",0.069,"ug/mL","2024-02-02T20:07:15","2024-02-02T08:06:36","PT12H",NA,NA
"PC","S1","S1-05","DrugA","SERUM",0,"ug/mL","2024-02-03T07:59:24","2024-02-03T08:04:33","PT-0.083H",NA,NA
"PC","S1","S1-05","DrugA","SERUM",0.803,"ug/mL","2024-02-03T08:34:58","2024-02-03T08:04:33","PT0.5H",NA,NA
"PC","S1","S1-05","DrugA","SERUM",1.718,"ug/mL","2024-02-03T09:30:18","2024-02-03T08:04:33","PT1.5H",NA,NA
"PC","S1","S1-05","DrugA","SERUM",1.901,"ug/mL","2024-02-03T09:33:57","2024-02-03T08:04:33","PT1.5H",NA,NA
"PC","S1","S1-05","DrugA","SERUM",3.682,"ug/mL","2024-02-03T10:59:16","2024-02-03T08:04:33","PT3H",NA,NA
"PC","S1","S1-05","DrugA","SERUM",1.785,"ug/mL","2024-02-03T12:31:26","2024-02-03T08:04:33","PT4.5H",NA,NA
"PC","S1","S1-05","DrugA","SERUM",0.914,"ug/mL","2024-02-03T14:03:54","2024-02-03T08:04:33","PT6H",NA,NA
"PC","S1","S1-05","DrugA","SERUM",0.474,"ug/mL","2024-02-03T15:33:18","2024-02-03T08:04:33","PT7.5H",NA,NA
"PC","S1","S1-05","DrugA","SERUM",0,"ug/mL","2024-02-03T20:01:33","2024-02-03T08:04:33","PT12H",NA,NA
"PC","S1","S1-05","DrugA","URINE",0.712,"mg/mL","2024-01-27T08:31:19","2024-01-27T08:00:00","PT0.5H",101,"mL"
"PC","S1","S1-05","DrugA","URINE",3.562,"mg/mL","2024-01-27T11:03:03","2024-01-27T08:00:00","PT3H",105,"mL"
"PC","S1","S1-05","DrugA","URINE",0.675,"mg/mL","2024-01-27T14:03:57","2024-01-27T08:00:00","PT6H",103,"mL"
"PC","S1","S1-05","DrugA","URINE",0.165,"mg/mL","2024-01-27T19:58:26","2024-01-27T08:00:00","PT12H",84,"mL"
"PC","S1","S1-05","DrugA","URINE",0.648,"mg/mL","2024-01-28T08:32:42","2024-01-28T07:59:42","PT0.5H",85,"mL"
"PC","S1","S1-05","DrugA","URINE",3.745,"mg/mL","2024-01-28T10:58:55","2024-01-28T07:59:42","PT3H",92,"mL"
"PC","S1","S1-05","DrugA","URINE",0.691,"mg/mL","2024-01-28T13:59:31","2024-01-28T07:59:42","PT6H",81,"mL"
"PC","S1","S1-05","DrugA","URINE",0.151,"mg/mL","2024-01-28T19:55:19","2024-01-28T07:59:42","PT12H",130,"mL"
"PC","S1","S1-05","DrugA","URINE",0.641,"mg/mL","2024-01-29T08:20:31","2024-01-29T07:51:43","PT0.5H",101,"mL"
"PC","S1","S1-05","DrugA","URINE",3.773,"mg/mL","2024-01-29T10:47:27","2024-01-29T07:51:43","PT3H",94,"mL"
"PC","S1","S1-05","DrugA","URINE",0.815,"mg/mL","2024-01-29T13:49:37","2024-01-29T07:51:43","PT6H",97,"mL"
"PC","S1","S1-05","DrugA","URINE",0,"mg/mL","2024-01-29T19:53:27","2024-01-29T07:51:43","PT12H",94,"mL"
"PC","S1","S1-05","DrugA","URINE",0.728,"mg/mL","2024-01-30T08:28:40","2024-01-30T07:57:32","PT0.5H",99,"mL"
"PC","S1","S1-05","DrugA","URINE",3.637,"mg/mL","2024-01-30T11:02:38","2024-01-30T07:57:32","PT3H",97,"mL"
"PC","S1","S1-05","DrugA","URINE",0.765,"mg/mL","2024-01-30T13:59:09","2024-01-30T07:57:32","PT6H",91,"mL"
"PC","S1","S1-05","DrugA","URINE",0.098,"mg/mL","2024-01-30T19:53:13","2024-01-30T07:57:32","PT12H",94,"mL"
"PC","S1","S1-05","DrugA","URINE",0.728,"mg/mL","2024-01-31T08:28:22","2024-01-31T07:57:39","PT0.5H",89,"mL"
"PC","S1","S1-05","DrugA","URINE",3.586,"mg/mL","2024-01-31T11:01:58","2024-01-31T07:57:39","PT3H",88,"mL"
"PC","S1","S1-05","DrugA","URINE",0.964,"mg/mL","2024-01-31T13:51:03","2024-01-31T07:57:39","PT6H",109,"mL"
"PC","S1","S1-05","DrugA","URINE",0.057,"mg/mL","2024-01-31T19:54:28","2024-01-31T07:57:39","PT12H",92,"mL"
"PC","S1","S1-05","DrugA","URINE",0.644,"mg/mL","2024-02-01T08:25:22","2024-02-01T07:59:38","PT0.5H",122,"mL"
"PC","S1","S1-05","DrugA","URINE",3.726,"mg/mL","2024-02-01T10:57:28","2024-02-01T07:59:38","PT3H",102,"mL"
"PC","S1","S1-05","DrugA","URINE",0.873,"mg/mL","2024-02-01T14:00:50","2024-02-01T07:59:38","PT6H",113,"mL"
"PC","S1","S1-05","DrugA","URINE",0.095,"mg/mL","2024-02-01T19:57:25","2024-02-01T07:59:38","PT12H",93,"mL"
"PC","S1","S1-05","DrugA","URINE",0.738,"mg/mL","2024-02-02T08:41:56","2024-02-02T08:06:36","PT0.5H",66,"mL"
"PC","S1","S1-05","DrugA","URINE",3.784,"mg/mL","2024-02-02T11:06:25","2024-02-02T08:06:36","PT3H",100,"mL"
"PC","S1","S1-05","DrugA","URINE",0.668,"mg/mL","2024-02-02T14:08:06","2024-02-02T08:06:36","PT6H",117,"mL"
"PC","S1","S1-05","DrugA","URINE",0.069,"mg/mL","2024-02-02T20:07:15","2024-02-02T08:06:36","PT12H",99,"mL"
"PC","S1","S1-05","DrugA","URINE",0.803,"mg/mL","2024-02-03T08:34:58","2024-02-03T08:04:33","PT0.5H",93,"mL"
"PC","S1","S1-05","DrugA","URINE",3.682,"mg/mL","2024-02-03T10:59:16","2024-02-03T08:04:33","PT3H",104,"mL"
"PC","S1","S1-05","DrugA","URINE",0.914,"mg/mL","2024-02-03T14:03:54","2024-02-03T08:04:33","PT6H",100,"mL"
"PC","S1","S1-05","DrugA","URINE",0,"mg/mL","2024-02-03T20:01:33","2024-02-03T08:04:33","PT12H",86,"mL"
"PC","S1","S1-05","Metab-DrugA","SERUM",0.042,"ug/mL","2024-01-27T07:54:57","2024-01-27T08:00:00","PT-0.083H",NA,NA
"PC","S1","S1-05","Metab-DrugA","SERUM",0.233,"ug/mL","2024-01-27T08:31:19","2024-01-27T08:00:00","PT0.5H",NA,NA
"PC","S1","S1-05","Metab-DrugA","SERUM",0.854,"ug/mL","2024-01-27T09:31:08","2024-01-27T08:00:00","PT1.5H",NA,NA
"PC","S1","S1-05","Metab-DrugA","SERUM",0.807,"ug/mL","2024-01-27T09:31:15","2024-01-27T08:00:00","PT1.5H",NA,NA
"PC","S1","S1-05","Metab-DrugA","SERUM",1.371,"ug/mL","2024-01-27T11:03:03","2024-01-27T08:00:00","PT3H",NA,NA
"PC","S1","S1-05","Metab-DrugA","SERUM",0.688,"ug/mL","2024-01-27T12:28:55","2024-01-27T08:00:00","PT4.5H",NA,NA
"PC","S1","S1-05","Metab-DrugA","SERUM",0.268,"ug/mL","2024-01-27T14:03:57","2024-01-27T08:00:00","PT6H",NA,NA
"PC","S1","S1-05","Metab-DrugA","SERUM",0.198,"ug/mL","2024-01-27T15:36:00","2024-01-27T08:00:00","PT7.5H",NA,NA
"PC","S1","S1-05","Metab-DrugA","SERUM",0.031,"ug/mL","2024-01-27T19:58:26","2024-01-27T08:00:00","PT12H",NA,NA
"PC","S1","S1-05","Metab-DrugA","SERUM",0.077,"ug/mL","2024-01-28T07:54:46","2024-01-28T07:59:42","PT-0.083H",NA,NA
"PC","S1","S1-05","Metab-DrugA","SERUM",0.301,"ug/mL","2024-01-28T08:32:42","2024-01-28T07:59:42","PT0.5H",NA,NA
"PC","S1","S1-05","Metab-DrugA","SERUM",0.75,"ug/mL","2024-01-28T09:28:58","2024-01-28T07:59:42","PT1.5H",NA,NA
"PC","S1","S1-05","Metab-DrugA","SERUM",0.761,"ug/mL","2024-01-28T09:29:06","2024-01-28T07:59:42","PT1.5H",NA,NA
"PC","S1","S1-05","Metab-DrugA","SERUM",1.431,"ug/mL","2024-01-28T10:58:55","2024-01-28T07:59:42","PT3H",NA,NA
"PC","S1","S1-05","Metab-DrugA","SERUM",0.72,"ug/mL","2024-01-28T12:26:16","2024-01-28T07:59:42","PT4.5H",NA,NA
"PC","S1","S1-05","Metab-DrugA","SERUM",0.227,"ug/mL","2024-01-28T13:59:31","2024-01-28T07:59:42","PT6H",NA,NA
"PC","S1","S1-05","Metab-DrugA","SERUM",0.111,"ug/mL","2024-01-28T15:30:21","2024-01-28T07:59:42","PT7.5H",NA,NA
"PC","S1","S1-05","Metab-DrugA","SERUM",0.019,"ug/mL","2024-01-28T19:55:19","2024-01-28T07:59:42","PT12H",NA,NA
"PC","S1","S1-05","Metab-DrugA","SERUM",0,"ug/mL","2024-01-29T07:46:40","2024-01-29T07:51:43","PT-0.083H",NA,NA
"PC","S1","S1-05","Metab-DrugA","SERUM",0.369,"ug/mL","2024-01-29T08:20:31","2024-01-29T07:51:43","PT0.5H",NA,NA
"PC","S1","S1-05","Metab-DrugA","SERUM",0.778,"ug/mL","2024-01-29T09:24:54","2024-01-29T07:51:43","PT1.5H",NA,NA
"PC","S1","S1-05","Metab-DrugA","SERUM",0.714,"ug/mL","2024-01-29T09:26:27","2024-01-29T07:51:43","PT1.5H",NA,NA
"PC","S1","S1-05","Metab-DrugA","SERUM",1.568,"ug/mL","2024-01-29T10:47:27","2024-01-29T07:51:43","PT3H",NA,NA
"PC","S1","S1-05","Metab-DrugA","SERUM",0.688,"ug/mL","2024-01-29T12:20:09","2024-01-29T07:51:43","PT4.5H",NA,NA
"PC","S1","S1-05","Metab-DrugA","SERUM",0.393,"ug/mL","2024-01-29T13:49:37","2024-01-29T07:51:43","PT6H",NA,NA
"PC","S1","S1-05","Metab-DrugA","SERUM",0.131,"ug/mL","2024-01-29T15:22:12","2024-01-29T07:51:43","PT7.5H",NA,NA
"PC","S1","S1-05","Metab-DrugA","SERUM",0.08,"ug/mL","2024-01-29T19:53:27","2024-01-29T07:51:43","PT12H",NA,NA
"PC","S1","S1-05","Metab-DrugA","SERUM",0.04,"ug/mL","2024-01-30T07:52:26","2024-01-30T07:57:32","PT-0.083H",NA,NA
"PC","S1","S1-05","Metab-DrugA","SERUM",0.231,"ug/mL","2024-01-30T08:28:40","2024-01-30T07:57:32","PT0.5H",NA,NA
"PC","S1","S1-05","Metab-DrugA","SERUM",0.896,"ug/mL","2024-01-30T09:29:20","2024-01-30T07:57:32","PT1.5H",NA,NA
"PC","S1","S1-05","Metab-DrugA","SERUM",0.736,"ug/mL","2024-01-30T09:30:10","2024-01-30T07:57:32","PT1.5H",NA,NA
"PC","S1","S1-05","Metab-DrugA","SERUM",1.476,"ug/mL","2024-01-30T11:02:38","2024-01-30T07:57:32","PT3H",NA,NA
"PC","S1","S1-05","Metab-DrugA","SERUM",0.673,"ug/mL","2024-01-30T12:26:27","2024-01-30T07:57:32","PT4.5H",NA,NA
"PC","S1","S1-05","Metab-DrugA","SERUM",0.365,"ug/mL","2024-01-30T13:59:09","2024-01-30T07:57:32","PT6H",NA,NA
"PC","S1","S1-05","Metab-DrugA","SERUM",0.159,"ug/mL","2024-01-30T15:28:33","2024-01-30T07:57:32","PT7.5H",NA,NA
"PC","S1","S1-05","Metab-DrugA","SERUM",0.011,"ug/mL","2024-01-30T19:53:13","2024-01-30T07:57:32","PT12H",NA,NA
"PC","S1","S1-05","Metab-DrugA","SERUM",0,"ug/mL","2024-01-31T07:52:40","2024-01-31T07:57:39","PT-0.083H",NA,NA
"PC","S1","S1-05","Metab-DrugA","SERUM",0.317,"ug/mL","2024-01-31T08:28:22","2024-01-31T07:57:39","PT0.5H",NA,NA
"PC","S1","S1-05","Metab-DrugA","SERUM",0.674,"ug/mL","2024-01-31T09:24:07","2024-01-31T07:57:39","PT1.5H",NA,NA
"PC","S1","S1-05","Metab-DrugA","SERUM",0.705,"ug/mL","2024-01-31T09:25:48","2024-01-31T07:57:39","PT1.5H",NA,NA
"PC","S1","S1-05","Metab-DrugA","SERUM",1.448,"ug/mL","2024-01-31T11:01:58","2024-01-31T07:57:39","PT3H",NA,NA
"PC","S1","S1-05","Metab-DrugA","SERUM",0.7,"ug/mL","2024-01-31T12:34:44","2024-01-31T07:57:39","PT4.5H",NA,NA
"PC","S1","S1-05","Metab-DrugA","SERUM",0.285,"ug/mL","2024-01-31T13:51:03","2024-01-31T07:57:39","PT6H",NA,NA
"PC","S1","S1-05","Metab-DrugA","SERUM",0.178,"ug/mL","2024-01-31T15:26:31","2024-01-31T07:57:39","PT7.5H",NA,NA
"PC","S1","S1-05","Metab-DrugA","SERUM",0,"ug/mL","2024-01-31T19:54:28","2024-01-31T07:57:39","PT12H",NA,NA
"PC","S1","S1-05","Metab-DrugA","SERUM",0,"ug/mL","2024-02-01T07:54:39","2024-02-01T07:59:38","PT-0.083H",NA,NA
"PC","S1","S1-05","Metab-DrugA","SERUM",0.316,"ug/mL","2024-02-01T08:25:22","2024-02-01T07:59:38","PT0.5H",NA,NA
"PC","S1","S1-05","Metab-DrugA","SERUM",0.805,"ug/mL","2024-02-01T09:29:09","2024-02-01T07:59:38","PT1.5H",NA,NA
"PC","S1","S1-05","Metab-DrugA","SERUM",0.815,"ug/mL","2024-02-01T09:36:14","2024-02-01T07:59:38","PT1.5H",NA,NA
"PC","S1","S1-05","Metab-DrugA","SERUM",1.46,"ug/mL","2024-02-01T10:57:28","2024-02-01T07:59:38","PT3H",NA,NA
"PC","S1","S1-05","Metab-DrugA","SERUM",0.672,"ug/mL","2024-02-01T12:36:57","2024-02-01T07:59:38","PT4.5H",NA,NA
"PC","S1","S1-05","Metab-DrugA","SERUM",0.397,"ug/mL","2024-02-01T14:00:50","2024-02-01T07:59:38","PT6H",NA,NA
"PC","S1","S1-05","Metab-DrugA","SERUM",0.25,"ug/mL","2024-02-01T15:25:26","2024-02-01T07:59:38","PT7.5H",NA,NA
"PC","S1","S1-05","Metab-DrugA","SERUM",0.055,"ug/mL","2024-02-01T19:57:25","2024-02-01T07:59:38","PT12H",NA,NA
"PC","S1","S1-05","Metab-DrugA","SERUM",0.019,"ug/mL","2024-02-02T08:01:33","2024-02-02T08:06:36","PT-0.083H",NA,NA
"PC","S1","S1-05","Metab-DrugA","SERUM",0.359,"ug/mL","2024-02-02T08:41:56","2024-02-02T08:06:36","PT0.5H",NA,NA
"PC","S1","S1-05","Metab-DrugA","SERUM",0.778,"ug/mL","2024-02-02T09:30:50","2024-02-02T08:06:36","PT1.5H",NA,NA
"PC","S1","S1-05","Metab-DrugA","SERUM",0.809,"ug/mL","2024-02-02T09:35:49","2024-02-02T08:06:36","PT1.5H",NA,NA
"PC","S1","S1-05","Metab-DrugA","SERUM",1.453,"ug/mL","2024-02-02T11:06:25","2024-02-02T08:06:36","PT3H",NA,NA
"PC","S1","S1-05","Metab-DrugA","SERUM",0.575,"ug/mL","2024-02-02T12:36:07","2024-02-02T08:06:36","PT4.5H",NA,NA
"PC","S1","S1-05","Metab-DrugA","SERUM",0.279,"ug/mL","2024-02-02T14:08:06","2024-02-02T08:06:36","PT6H",NA,NA
"PC","S1","S1-05","Metab-DrugA","SERUM",0.259,"ug/mL","2024-02-02T15:44:38","2024-02-02T08:06:36","PT7.5H",NA,NA
"PC","S1","S1-05","Metab-DrugA","SERUM",0.023,"ug/mL","2024-02-02T20:07:15","2024-02-02T08:06:36","PT12H",NA,NA
"PC","S1","S1-05","Metab-DrugA","SERUM",0,"ug/mL","2024-02-03T07:59:24","2024-02-03T08:04:33","PT-0.083H",NA,NA
"PC","S1","S1-05","Metab-DrugA","SERUM",0.179,"ug/mL","2024-02-03T08:34:58","2024-02-03T08:04:33","PT0.5H",NA,NA
"PC","S1","S1-05","Metab-DrugA","SERUM",0.679,"ug/mL","2024-02-03T09:30:18","2024-02-03T08:04:33","PT1.5H",NA,NA
"PC","S1","S1-05","Metab-DrugA","SERUM",0.747,"ug/mL","2024-02-03T09:33:57","2024-02-03T08:04:33","PT1.5H",NA,NA
"PC","S1","S1-05","Metab-DrugA","SERUM",1.433,"ug/mL","2024-02-03T10:59:16","2024-02-03T08:04:33","PT3H",NA,NA
"PC","S1","S1-05","Metab-DrugA","SERUM",0.698,"ug/mL","2024-02-03T12:31:26","2024-02-03T08:04:33","PT4.5H",NA,NA
"PC","S1","S1-05","Metab-DrugA","SERUM",0.358,"ug/mL","2024-02-03T14:03:54","2024-02-03T08:04:33","PT6H",NA,NA
"PC","S1","S1-05","Metab-DrugA","SERUM",0.248,"ug/mL","2024-02-03T15:33:18","2024-02-03T08:04:33","PT7.5H",NA,NA
"PC","S1","S1-05","Metab-DrugA","SERUM",0,"ug/mL","2024-02-03T20:01:33","2024-02-03T08:04:33","PT12H",NA,NA
"PC","S1","S1-06","DrugA","SERUM",0.048,"ug/mL","2024-01-30T07:54:57","2024-01-30T08:00:00","PT-0.083H",NA,NA
"PC","S1","S1-06","DrugA","SERUM",8.42,"ug/mL","2024-01-30T08:32:16","2024-01-30T08:00:00","PT0.5H",NA,NA
"PC","S1","S1-06","DrugA","SERUM",5.549,"ug/mL","2024-01-30T09:22:12","2024-01-30T08:00:00","PT1.5H",NA,NA
"PC","S1","S1-06","DrugA","SERUM",5.252,"ug/mL","2024-01-30T09:29:34","2024-01-30T08:00:00","PT1.5H",NA,NA
"PC","S1","S1-06","DrugA","SERUM",2.47,"ug/mL","2024-01-30T11:01:40","2024-01-30T08:00:00","PT3H",NA,NA
"PC","S1","S1-06","DrugA","SERUM",1.181,"ug/mL","2024-01-30T12:24:03","2024-01-30T08:00:00","PT4.5H",NA,NA
"PC","S1","S1-06","DrugA","SERUM",0.587,"ug/mL","2024-01-30T13:56:38","2024-01-30T08:00:00","PT6H",NA,NA
"PC","S1","S1-06","DrugA","SERUM",0.211,"ug/mL","2024-01-30T15:29:06","2024-01-30T08:00:00","PT7.5H",NA,NA
"PC","S1","S1-06","DrugA","SERUM",0.138,"ug/mL","2024-01-30T20:03:14","2024-01-30T08:00:00","PT12H",NA,NA
"PC","S1","S1-06","DrugA","SERUM",0.023,"ug/mL","2024-01-31T07:53:31","2024-01-31T07:58:30","PT-0.083H",NA,NA
"PC","S1","S1-06","DrugA","SERUM",8.363,"ug/mL","2024-01-31T08:31:22","2024-01-31T07:58:30","PT0.5H",NA,NA
"PC","S1","S1-06","DrugA","SERUM",5.145,"ug/mL","2024-01-31T09:29:06","2024-01-31T07:58:30","PT1.5H",NA,NA
"PC","S1","S1-06","DrugA","SERUM",5.017,"ug/mL","2024-01-31T09:32:27","2024-01-31T07:58:30","PT1.5H",NA,NA
"PC","S1","S1-06","DrugA","SERUM",2.302,"ug/mL","2024-01-31T11:03:21","2024-01-31T07:58:30","PT3H",NA,NA
"PC","S1","S1-06","DrugA","SERUM",1.148,"ug/mL","2024-01-31T12:30:03","2024-01-31T07:58:30","PT4.5H",NA,NA
"PC","S1","S1-06","DrugA","SERUM",0.582,"ug/mL","2024-01-31T13:57:18","2024-01-31T07:58:30","PT6H",NA,NA
"PC","S1","S1-06","DrugA","SERUM",0.245,"ug/mL","2024-01-31T15:23:06","2024-01-31T07:58:30","PT7.5H",NA,NA
"PC","S1","S1-06","DrugA","SERUM",0,"ug/mL","2024-01-31T19:54:54","2024-01-31T07:58:30","PT12H",NA,NA
"PC","S1","S1-06","DrugA","SERUM",0,"ug/mL","2024-02-01T07:59:13","2024-02-01T08:04:12","PT-0.083H",NA,NA
"PC","S1","S1-06","DrugA","SERUM",8.606,"ug/mL","2024-02-01T08:34:01","2024-02-01T08:04:12","PT0.5H",NA,NA
"PC","S1","S1-06","DrugA","SERUM",5.296,"ug/mL","2024-02-01T09:32:16","2024-02-01T08:04:12","PT1.5H",NA,NA
"PC","S1","S1-06","DrugA","SERUM",4.894,"ug/mL","2024-02-01T09:41:06","2024-02-01T08:04:12","PT1.5H",NA,NA
"PC","S1","S1-06","DrugA","SERUM",2.529,"ug/mL","2024-02-01T10:59:16","2024-02-01T08:04:12","PT3H",NA,NA
"PC","S1","S1-06","DrugA","SERUM",1.204,"ug/mL","2024-02-01T12:30:54","2024-02-01T08:04:12","PT4.5H",NA,NA
"PC","S1","S1-06","DrugA","SERUM",0.458,"ug/mL","2024-02-01T14:08:49","2024-02-01T08:04:12","PT6H",NA,NA
"PC","S1","S1-06","DrugA","SERUM",0.187,"ug/mL","2024-02-01T15:33:28","2024-02-01T08:04:12","PT7.5H",NA,NA
"PC","S1","S1-06","DrugA","SERUM",0,"ug/mL","2024-02-01T20:04:51","2024-02-01T08:04:12","PT12H",NA,NA
"PC","S1","S1-06","DrugA","SERUM",0,"ug/mL","2024-02-02T07:58:22","2024-02-02T08:03:21","PT-0.083H",NA,NA
"PC","S1","S1-06","DrugA","SERUM",8.672,"ug/mL","2024-02-02T08:32:27","2024-02-02T08:03:21","PT0.5H",NA,NA
"PC","S1","S1-06","DrugA","SERUM",5.288,"ug/mL","2024-02-02T09:32:06","2024-02-02T08:03:21","PT1.5H",NA,NA
"PC","S1","S1-06","DrugA","SERUM",5.154,"ug/mL","2024-02-02T09:33:39","2024-02-02T08:03:21","PT1.5H",NA,NA
"PC","S1","S1-06","DrugA","SERUM",2.574,"ug/mL","2024-02-02T11:01:01","2024-02-02T08:03:21","PT3H",NA,NA
"PC","S1","S1-06","DrugA","SERUM",1.038,"ug/mL","2024-02-02T12:40:12","2024-02-02T08:03:21","PT4.5H",NA,NA
"PC","S1","S1-06","DrugA","SERUM",0.533,"ug/mL","2024-02-02T14:01:08","2024-02-02T08:03:21","PT6H",NA,NA
"PC","S1","S1-06","DrugA","SERUM",0.224,"ug/mL","2024-02-02T15:32:38","2024-02-02T08:03:21","PT7.5H",NA,NA
"PC","S1","S1-06","DrugA","SERUM",0.035,"ug/mL","2024-02-02T20:03:46","2024-02-02T08:03:21","PT12H",NA,NA
"PC","S1","S1-06","DrugA","SERUM",0,"ug/mL","2024-02-03T07:50:52","2024-02-03T07:55:51","PT-0.083H",NA,NA
"PC","S1","S1-06","DrugA","SERUM",8.437,"ug/mL","2024-02-03T08:28:33","2024-02-03T07:55:51","PT0.5H",NA,NA
"PC","S1","S1-06","DrugA","SERUM",5.278,"ug/mL","2024-02-03T09:25:22","2024-02-03T07:55:51","PT1.5H",NA,NA
"PC","S1","S1-06","DrugA","SERUM",5.186,"ug/mL","2024-02-03T09:27:14","2024-02-03T07:55:51","PT1.5H",NA,NA
"PC","S1","S1-06","DrugA","SERUM",2.49,"ug/mL","2024-02-03T10:53:56","2024-02-03T07:55:51","PT3H",NA,NA
"PC","S1","S1-06","DrugA","SERUM",1.243,"ug/mL","2024-02-03T12:23:13","2024-02-03T07:55:51","PT4.5H",NA,NA
"PC","S1","S1-06","DrugA","SERUM",0.605,"ug/mL","2024-02-03T13:48:50","2024-02-03T07:55:51","PT6H",NA,NA
"PC","S1","S1-06","DrugA","SERUM",0.308,"ug/mL","2024-02-03T15:25:04","2024-02-03T07:55:51","PT7.5H",NA,NA
"PC","S1","S1-06","DrugA","SERUM",0.037,"ug/mL","2024-02-03T19:52:40","2024-02-03T07:55:51","PT12H",NA,NA
"PC","S1","S1-06","DrugA","SERUM",0.015,"ug/mL","2024-02-04T07:50:38","2024-02-04T07:55:44","PT-0.083H",NA,NA
"PC","S1","S1-06","DrugA","SERUM",8.688,"ug/mL","2024-02-04T08:22:37","2024-02-04T07:55:44","PT0.5H",NA,NA
"PC","S1","S1-06","DrugA","SERUM",5.179,"ug/mL","2024-02-04T09:25:30","2024-02-04T07:55:44","PT1.5H",NA,NA
"PC","S1","S1-06","DrugA","SERUM",5.168,"ug/mL","2024-02-04T09:27:36","2024-02-04T07:55:44","PT1.5H",NA,NA
"PC","S1","S1-06","DrugA","SERUM",2.502,"ug/mL","2024-02-04T10:53:42","2024-02-04T07:55:44","PT3H",NA,NA
"PC","S1","S1-06","DrugA","SERUM",1.095,"ug/mL","2024-02-04T12:26:06","2024-02-04T07:55:44","PT4.5H",NA,NA
"PC","S1","S1-06","DrugA","SERUM",0.489,"ug/mL","2024-02-04T13:58:12","2024-02-04T07:55:44","PT6H",NA,NA
"PC","S1","S1-06","DrugA","SERUM",0.243,"ug/mL","2024-02-04T15:20:24","2024-02-04T07:55:44","PT7.5H",NA,NA
"PC","S1","S1-06","DrugA","SERUM",0.134,"ug/mL","2024-02-04T19:54:28","2024-02-04T07:55:44","PT12H",NA,NA
"PC","S1","S1-06","DrugA","SERUM",0,"ug/mL","2024-02-05T07:57:14","2024-02-05T08:02:09","PT-0.083H",NA,NA
"PC","S1","S1-06","DrugA","SERUM",8.123,"ug/mL","2024-02-05T08:38:06","2024-02-05T08:02:09","PT0.5H",NA,NA
"PC","S1","S1-06","DrugA","SERUM",5.135,"ug/mL","2024-02-05T09:31:08","2024-02-05T08:02:09","PT1.5H",NA,NA
"PC","S1","S1-06","DrugA","SERUM",5.014,"ug/mL","2024-02-05T09:34:12","2024-02-05T08:02:09","PT1.5H",NA,NA
"PC","S1","S1-06","DrugA","SERUM",2.644,"ug/mL","2024-02-05T10:56:02","2024-02-05T08:02:09","PT3H",NA,NA
"PC","S1","S1-06","DrugA","SERUM",1.011,"ug/mL","2024-02-05T12:43:37","2024-02-05T08:02:09","PT4.5H",NA,NA
"PC","S1","S1-06","DrugA","SERUM",0.636,"ug/mL","2024-02-05T14:00:39","2024-02-05T08:02:09","PT6H",NA,NA
"PC","S1","S1-06","DrugA","SERUM",0.231,"ug/mL","2024-02-05T15:37:30","2024-02-05T08:02:09","PT7.5H",NA,NA
"PC","S1","S1-06","DrugA","SERUM",0,"ug/mL","2024-02-05T20:00:10","2024-02-05T08:02:09","PT12H",NA,NA
"PC","S1","S1-06","DrugA","SERUM",0.11,"ug/mL","2024-02-06T07:59:38","2024-02-06T08:04:37","PT-0.083H",NA,NA
"PC","S1","S1-06","DrugA","SERUM",8.595,"ug/mL","2024-02-06T08:33:28","2024-02-06T08:04:37","PT0.5H",NA,NA
"PC","S1","S1-06","DrugA","SERUM",5.175,"ug/mL","2024-02-06T09:34:30","2024-02-06T08:04:37","PT1.5H",NA,NA
"PC","S1","S1-06","DrugA","SERUM",5.128,"ug/mL","2024-02-06T09:36:18","2024-02-06T08:04:37","PT1.5H",NA,NA
"PC","S1","S1-06","DrugA","SERUM",2.418,"ug/mL","2024-02-06T11:06:07","2024-02-06T08:04:37","PT3H",NA,NA
"PC","S1","S1-06","DrugA","SERUM",1.116,"ug/mL","2024-02-06T12:31:19","2024-02-06T08:04:37","PT4.5H",NA,NA
"PC","S1","S1-06","DrugA","SERUM",0.479,"ug/mL","2024-02-06T14:03:03","2024-02-06T08:04:37","PT6H",NA,NA
"PC","S1","S1-06","DrugA","SERUM",0.317,"ug/mL","2024-02-06T15:39:54","2024-02-06T08:04:37","PT7.5H",NA,NA
"PC","S1","S1-06","DrugA","SERUM",0,"ug/mL","2024-02-06T20:07:30","2024-02-06T08:04:37","PT12H",NA,NA
"PC","S1","S1-06","Metab-DrugA","SERUM",0,"ug/mL","2024-01-30T07:54:57","2024-01-30T08:00:00","PT-0.083H",NA,NA
"PC","S1","S1-06","Metab-DrugA","SERUM",8.35,"ug/mL","2024-01-30T08:32:16","2024-01-30T08:00:00","PT0.5H",NA,NA
"PC","S1","S1-06","Metab-DrugA","SERUM",5.542,"ug/mL","2024-01-30T09:22:12","2024-01-30T08:00:00","PT1.5H",NA,NA
"PC","S1","S1-06","Metab-DrugA","SERUM",5.324,"ug/mL","2024-01-30T09:29:34","2024-01-30T08:00:00","PT1.5H",NA,NA
"PC","S1","S1-06","Metab-DrugA","SERUM",2.488,"ug/mL","2024-01-30T11:01:40","2024-01-30T08:00:00","PT3H",NA,NA
"PC","S1","S1-06","Metab-DrugA","SERUM",1.199,"ug/mL","2024-01-30T12:24:03","2024-01-30T08:00:00","PT4.5H",NA,NA
"PC","S1","S1-06","Metab-DrugA","SERUM",0.524,"ug/mL","2024-01-30T13:56:38","2024-01-30T08:00:00","PT6H",NA,NA
"PC","S1","S1-06","Metab-DrugA","SERUM",0.324,"ug/mL","2024-01-30T15:29:06","2024-01-30T08:00:00","PT7.5H",NA,NA
"PC","S1","S1-06","Metab-DrugA","SERUM",0.042,"ug/mL","2024-01-30T20:03:14","2024-01-30T08:00:00","PT12H",NA,NA
"PC","S1","S1-06","Metab-DrugA","SERUM",0,"ug/mL","2024-01-31T07:53:31","2024-01-31T07:58:30","PT-0.083H",NA,NA
"PC","S1","S1-06","Metab-DrugA","SERUM",8.363,"ug/mL","2024-01-31T08:31:22","2024-01-31T07:58:30","PT0.5H",NA,NA
"PC","S1","S1-06","Metab-DrugA","SERUM",5.229,"ug/mL","2024-01-31T09:29:06","2024-01-31T07:58:30","PT1.5H",NA,NA
"PC","S1","S1-06","Metab-DrugA","SERUM",5.023,"ug/mL","2024-01-31T09:32:27","2024-01-31T07:58:30","PT1.5H",NA,NA
"PC","S1","S1-06","Metab-DrugA","SERUM",2.368,"ug/mL","2024-01-31T11:03:21","2024-01-31T07:58:30","PT3H",NA,NA
"PC","S1","S1-06","Metab-DrugA","SERUM",1.184,"ug/mL","2024-01-31T12:30:03","2024-01-31T07:58:30","PT4.5H",NA,NA
"PC","S1","S1-06","Metab-DrugA","SERUM",0.526,"ug/mL","2024-01-31T13:57:18","2024-01-31T07:58:30","PT6H",NA,NA
"PC","S1","S1-06","Metab-DrugA","SERUM",0.169,"ug/mL","2024-01-31T15:23:06","2024-01-31T07:58:30","PT7.5H",NA,NA
"PC","S1","S1-06","Metab-DrugA","SERUM",0.027,"ug/mL","2024-01-31T19:54:54","2024-01-31T07:58:30","PT12H",NA,NA
"PC","S1","S1-06","Metab-DrugA","SERUM",0.061,"ug/mL","2024-02-01T07:59:13","2024-02-01T08:04:12","PT-0.083H",NA,NA
"PC","S1","S1-06","Metab-DrugA","SERUM",8.569,"ug/mL","2024-02-01T08:34:01","2024-02-01T08:04:12","PT0.5H",NA,NA
"PC","S1","S1-06","Metab-DrugA","SERUM",5.312,"ug/mL","2024-02-01T09:32:16","2024-02-01T08:04:12","PT1.5H",NA,NA
"PC","S1","S1-06","Metab-DrugA","SERUM",4.877,"ug/mL","2024-02-01T09:41:06","2024-02-01T08:04:12","PT1.5H",NA,NA
"PC","S1","S1-06","Metab-DrugA","SERUM",2.511,"ug/mL","2024-02-01T10:59:16","2024-02-01T08:04:12","PT3H",NA,NA
"PC","S1","S1-06","Metab-DrugA","SERUM",1.213,"ug/mL","2024-02-01T12:30:54","2024-02-01T08:04:12","PT4.5H",NA,NA
"PC","S1","S1-06","Metab-DrugA","SERUM",0.508,"ug/mL","2024-02-01T14:08:49","2024-02-01T08:04:12","PT6H",NA,NA
"PC","S1","S1-06","Metab-DrugA","SERUM",0.302,"ug/mL","2024-02-01T15:33:28","2024-02-01T08:04:12","PT7.5H",NA,NA
"PC","S1","S1-06","Metab-DrugA","SERUM",0.075,"ug/mL","2024-02-01T20:04:51","2024-02-01T08:04:12","PT12H",NA,NA
"PC","S1","S1-06","Metab-DrugA","SERUM",0,"ug/mL","2024-02-02T07:58:22","2024-02-02T08:03:21","PT-0.083H",NA,NA
"PC","S1","S1-06","Metab-DrugA","SERUM",8.638,"ug/mL","2024-02-02T08:32:27","2024-02-02T08:03:21","PT0.5H",NA,NA
"PC","S1","S1-06","Metab-DrugA","SERUM",5.298,"ug/mL","2024-02-02T09:32:06","2024-02-02T08:03:21","PT1.5H",NA,NA
"PC","S1","S1-06","Metab-DrugA","SERUM",5.255,"ug/mL","2024-02-02T09:33:39","2024-02-02T08:03:21","PT1.5H",NA,NA
"PC","S1","S1-06","Metab-DrugA","SERUM",2.483,"ug/mL","2024-02-02T11:01:01","2024-02-02T08:03:21","PT3H",NA,NA
"PC","S1","S1-06","Metab-DrugA","SERUM",1.071,"ug/mL","2024-02-02T12:40:12","2024-02-02T08:03:21","PT4.5H",NA,NA
"PC","S1","S1-06","Metab-DrugA","SERUM",0.542,"ug/mL","2024-02-02T14:01:08","2024-02-02T08:03:21","PT6H",NA,NA
"PC","S1","S1-06","Metab-DrugA","SERUM",0.321,"ug/mL","2024-02-02T15:32:38","2024-02-02T08:03:21","PT7.5H",NA,NA
"PC","S1","S1-06","Metab-DrugA","SERUM",0,"ug/mL","2024-02-02T20:03:46","2024-02-02T08:03:21","PT12H",NA,NA
"PC","S1","S1-06","Metab-DrugA","SERUM",0,"ug/mL","2024-02-03T07:50:52","2024-02-03T07:55:51","PT-0.083H",NA,NA
"PC","S1","S1-06","Metab-DrugA","SERUM",8.365,"ug/mL","2024-02-03T08:28:33","2024-02-03T07:55:51","PT0.5H",NA,NA
"PC","S1","S1-06","Metab-DrugA","SERUM",5.153,"ug/mL","2024-02-03T09:25:22","2024-02-03T07:55:51","PT1.5H",NA,NA
"PC","S1","S1-06","Metab-DrugA","SERUM",5.116,"ug/mL","2024-02-03T09:27:14","2024-02-03T07:55:51","PT1.5H",NA,NA
"PC","S1","S1-06","Metab-DrugA","SERUM",2.474,"ug/mL","2024-02-03T10:53:56","2024-02-03T07:55:51","PT3H",NA,NA
"PC","S1","S1-06","Metab-DrugA","SERUM",1.188,"ug/mL","2024-02-03T12:23:13","2024-02-03T07:55:51","PT4.5H",NA,NA
"PC","S1","S1-06","Metab-DrugA","SERUM",0.615,"ug/mL","2024-02-03T13:48:50","2024-02-03T07:55:51","PT6H",NA,NA
"PC","S1","S1-06","Metab-DrugA","SERUM",0.339,"ug/mL","2024-02-03T15:25:04","2024-02-03T07:55:51","PT7.5H",NA,NA
"PC","S1","S1-06","Metab-DrugA","SERUM",0.069,"ug/mL","2024-02-03T19:52:40","2024-02-03T07:55:51","PT12H",NA,NA
"PC","S1","S1-06","Metab-DrugA","SERUM",0,"ug/mL","2024-02-04T07:50:38","2024-02-04T07:55:44","PT-0.083H",NA,NA
"PC","S1","S1-06","Metab-DrugA","SERUM",8.869,"ug/mL","2024-02-04T08:22:37","2024-02-04T07:55:44","PT0.5H",NA,NA
"PC","S1","S1-06","Metab-DrugA","SERUM",5.246,"ug/mL","2024-02-04T09:25:30","2024-02-04T07:55:44","PT1.5H",NA,NA
"PC","S1","S1-06","Metab-DrugA","SERUM",5.12,"ug/mL","2024-02-04T09:27:36","2024-02-04T07:55:44","PT1.5H",NA,NA
"PC","S1","S1-06","Metab-DrugA","SERUM",2.564,"ug/mL","2024-02-04T10:53:42","2024-02-04T07:55:44","PT3H",NA,NA
"PC","S1","S1-06","Metab-DrugA","SERUM",1.183,"ug/mL","2024-02-04T12:26:06","2024-02-04T07:55:44","PT4.5H",NA,NA
"PC","S1","S1-06","Metab-DrugA","SERUM",0.529,"ug/mL","2024-02-04T13:58:12","2024-02-04T07:55:44","PT6H",NA,NA
"PC","S1","S1-06","Metab-DrugA","SERUM",0.241,"ug/mL","2024-02-04T15:20:24","2024-02-04T07:55:44","PT7.5H",NA,NA
"PC","S1","S1-06","Metab-DrugA","SERUM",0.072,"ug/mL","2024-02-04T19:54:28","2024-02-04T07:55:44","PT12H",NA,NA
"PC","S1","S1-06","Metab-DrugA","SERUM",0,"ug/mL","2024-02-05T07:57:14","2024-02-05T08:02:09","PT-0.083H",NA,NA
"PC","S1","S1-06","Metab-DrugA","SERUM",8.147,"ug/mL","2024-02-05T08:38:06","2024-02-05T08:02:09","PT0.5H",NA,NA
"PC","S1","S1-06","Metab-DrugA","SERUM",5.183,"ug/mL","2024-02-05T09:31:08","2024-02-05T08:02:09","PT1.5H",NA,NA
"PC","S1","S1-06","Metab-DrugA","SERUM",5.008,"ug/mL","2024-02-05T09:34:12","2024-02-05T08:02:09","PT1.5H",NA,NA
"PC","S1","S1-06","Metab-DrugA","SERUM",2.594,"ug/mL","2024-02-05T10:56:02","2024-02-05T08:02:09","PT3H",NA,NA
"PC","S1","S1-06","Metab-DrugA","SERUM",1.048,"ug/mL","2024-02-05T12:43:37","2024-02-05T08:02:09","PT4.5H",NA,NA
"PC","S1","S1-06","Metab-DrugA","SERUM",0.453,"ug/mL","2024-02-05T14:00:39","2024-02-05T08:02:09","PT6H",NA,NA
"PC","S1","S1-06","Metab-DrugA","SERUM",0.233,"ug/mL","2024-02-05T15:37:30","2024-02-05T08:02:09","PT7.5H",NA,NA
"PC","S1","S1-06","Metab-DrugA","SERUM",0.049,"ug/mL","2024-02-05T20:00:10","2024-02-05T08:02:09","PT12H",NA,NA
"PC","S1","S1-06","Metab-DrugA","SERUM",0.032,"ug/mL","2024-02-06T07:59:38","2024-02-06T08:04:37","PT-0.083H",NA,NA
"PC","S1","S1-06","Metab-DrugA","SERUM",8.664,"ug/mL","2024-02-06T08:33:28","2024-02-06T08:04:37","PT0.5H",NA,NA
"PC","S1","S1-06","Metab-DrugA","SERUM",5.237,"ug/mL","2024-02-06T09:34:30","2024-02-06T08:04:37","PT1.5H",NA,NA
"PC","S1","S1-06","Metab-DrugA","SERUM",5.132,"ug/mL","2024-02-06T09:36:18","2024-02-06T08:04:37","PT1.5H",NA,NA
"PC","S1","S1-06","Metab-DrugA","SERUM",2.442,"ug/mL","2024-02-06T11:06:07","2024-02-06T08:04:37","PT3H",NA,NA
"PC","S1","S1-06","Metab-DrugA","SERUM",1.186,"ug/mL","2024-02-06T12:31:19","2024-02-06T08:04:37","PT4.5H",NA,NA
"PC","S1","S1-06","Metab-DrugA","SERUM",0.503,"ug/mL","2024-02-06T14:03:03","2024-02-06T08:04:37","PT6H",NA,NA
"PC","S1","S1-06","Metab-DrugA","SERUM",0.26,"ug/mL","2024-02-06T15:39:54","2024-02-06T08:04:37","PT7.5H",NA,NA
"PC","S1","S1-06","Metab-DrugA","SERUM",0.073,"ug/mL","2024-02-06T20:07:30","2024-02-06T08:04:37","PT12H",NA,NA
"PC","S1","S1-07","DrugA","SERUM",0.041,"ug/mL","2024-02-02T07:55:01","2024-02-02T08:00:00","PT-0.083H",NA,NA
"PC","S1","S1-07","DrugA","SERUM",4.195,"ug/mL","2024-02-02T08:34:58","2024-02-02T08:00:00","PT0.5H",NA,NA
"PC","S1","S1-07","DrugA","SERUM",2.597,"ug/mL","2024-02-02T09:28:15","2024-02-02T08:00:00","PT1.5H",NA,NA
"PC","S1","S1-07","DrugA","SERUM",2.512,"ug/mL","2024-02-02T09:32:20","2024-02-02T08:00:00","PT1.5H",NA,NA
"PC","S1","S1-07","DrugA","SERUM",1.175,"ug/mL","2024-02-02T10:55:22","2024-02-02T08:00:00","PT3H",NA,NA
"PC","S1","S1-07","DrugA","SERUM",0.67,"ug/mL","2024-02-02T12:30:54","2024-02-02T08:00:00","PT4.5H",NA,NA
"PC","S1","S1-07","DrugA","SERUM",0.244,"ug/mL","2024-02-02T13:56:20","2024-02-02T08:00:00","PT6H",NA,NA
"PC","S1","S1-07","DrugA","SERUM",0.108,"ug/mL","2024-02-02T15:32:02","2024-02-02T08:00:00","PT7.5H",NA,NA
"PC","S1","S1-07","DrugA","SERUM",0,"ug/mL","2024-02-02T20:04:40","2024-02-02T08:00:00","PT12H",NA,NA
"PC","S1","S1-07","DrugA","SERUM",0.037,"ug/mL","2024-02-03T08:00:21","2024-02-03T08:05:16","PT-0.083H",NA,NA
"PC","S1","S1-07","DrugA","SERUM",4.205,"ug/mL","2024-02-03T08:39:50","2024-02-03T08:05:16","PT0.5H",NA,NA
"PC","S1","S1-07","DrugA","SERUM",2.699,"ug/mL","2024-02-03T09:31:12","2024-02-03T08:05:16","PT1.5H",NA,NA
"PC","S1","S1-07","DrugA","SERUM",2.447,"ug/mL","2024-02-03T09:41:31","2024-02-03T08:05:16","PT1.5H",NA,NA
"PC","S1","S1-07","DrugA","SERUM",1.145,"ug/mL","2024-02-03T11:05:13","2024-02-03T08:05:16","PT3H",NA,NA
"PC","S1","S1-07","DrugA","SERUM",0.67,"ug/mL","2024-02-03T12:31:58","2024-02-03T08:05:16","PT4.5H",NA,NA
"PC","S1","S1-07","DrugA","SERUM",0.309,"ug/mL","2024-02-03T14:05:13","2024-02-03T08:05:16","PT6H",NA,NA
"PC","S1","S1-07","DrugA","SERUM",0.131,"ug/mL","2024-02-03T15:31:58","2024-02-03T08:05:16","PT7.5H",NA,NA
"PC","S1","S1-07","DrugA","SERUM",0.074,"ug/mL","2024-02-03T20:02:09","2024-02-03T08:05:16","PT12H",NA,NA
"PC","S1","S1-07","DrugA","SERUM",0.065,"ug/mL","2024-02-04T07:57:25","2024-02-04T08:02:24","PT-0.083H",NA,NA
"PC","S1","S1-07","DrugA","SERUM",4.251,"ug/mL","2024-02-04T08:32:38","2024-02-04T08:02:24","PT0.5H",NA,NA
"PC","S1","S1-07","DrugA","SERUM",2.562,"ug/mL","2024-02-04T09:31:15","2024-02-04T08:02:24","PT1.5H",NA,NA
"PC","S1","S1-07","DrugA","SERUM",2.58,"ug/mL","2024-02-04T09:35:27","2024-02-04T08:02:24","PT1.5H",NA,NA
"PC","S1","S1-07","DrugA","SERUM",1.244,"ug/mL","2024-02-04T11:04:12","2024-02-04T08:02:24","PT3H",NA,NA
"PC","S1","S1-07","DrugA","SERUM",0.55,"ug/mL","2024-02-04T12:33:25","2024-02-04T08:02:24","PT4.5H",NA,NA
"PC","S1","S1-07","DrugA","SERUM",0.427,"ug/mL","2024-02-04T14:04:30","2024-02-04T08:02:24","PT6H",NA,NA
"PC","S1","S1-07","DrugA","SERUM",0,"ug/mL","2024-02-04T15:34:33","2024-02-04T08:02:24","PT7.5H",NA,NA
"PC","S1","S1-07","DrugA","SERUM",0.013,"ug/mL","2024-02-04T20:05:13","2024-02-04T08:02:24","PT12H",NA,NA
"PC","S1","S1-07","DrugA","SERUM",0.057,"ug/mL","2024-02-05T07:51:18","2024-02-05T07:56:20","PT-0.083H",NA,NA
"PC","S1","S1-07","DrugA","SERUM",4.297,"ug/mL","2024-02-05T08:28:01","2024-02-05T07:56:20","PT0.5H",NA,NA
"PC","S1","S1-07","DrugA","SERUM",2.629,"ug/mL","2024-02-05T09:27:10","2024-02-05T07:56:20","PT1.5H",NA,NA
"PC","S1","S1-07","DrugA","SERUM",2.528,"ug/mL","2024-02-05T09:29:56","2024-02-05T07:56:20","PT1.5H",NA,NA
"PC","S1","S1-07","DrugA","SERUM",1.273,"ug/mL","2024-02-05T10:55:44","2024-02-05T07:56:20","PT3H",NA,NA
"PC","S1","S1-07","DrugA","SERUM",0.62,"ug/mL","2024-02-05T12:23:42","2024-02-05T07:56:20","PT4.5H",NA,NA
"PC","S1","S1-07","DrugA","SERUM",0.277,"ug/mL","2024-02-05T13:54:36","2024-02-05T07:56:20","PT6H",NA,NA
"PC","S1","S1-07","DrugA","SERUM",0.086,"ug/mL","2024-02-05T15:25:37","2024-02-05T07:56:20","PT7.5H",NA,NA
"PC","S1","S1-07","DrugA","SERUM",0.074,"ug/mL","2024-02-05T19:56:06","2024-02-05T07:56:20","PT12H",NA,NA
"PC","S1","S1-07","DrugA","SERUM",0,"ug/mL","2024-02-06T07:57:07","2024-02-06T08:02:02","PT-0.083H",NA,NA
"PC","S1","S1-07","DrugA","SERUM",4.38,"ug/mL","2024-02-06T08:28:58","2024-02-06T08:02:02","PT0.5H",NA,NA
"PC","S1","S1-07","DrugA","SERUM",2.692,"ug/mL","2024-02-06T09:28:19","2024-02-06T08:02:02","PT1.5H",NA,NA
"PC","S1","S1-07","DrugA","SERUM",2.653,"ug/mL","2024-02-06T09:29:34","2024-02-06T08:02:02","PT1.5H",NA,NA
"PC","S1","S1-07","DrugA","SERUM",1.101,"ug/mL","2024-02-06T11:04:44","2024-02-06T08:02:02","PT3H",NA,NA
"PC","S1","S1-07","DrugA","SERUM",0.557,"ug/mL","2024-02-06T12:32:16","2024-02-06T08:02:02","PT4.5H",NA,NA
"PC","S1","S1-07","DrugA","SERUM",0.309,"ug/mL","2024-02-06T14:00:14","2024-02-06T08:02:02","PT6H",NA,NA
"PC","S1","S1-07","DrugA","SERUM",0.192,"ug/mL","2024-02-06T15:31:04","2024-02-06T08:02:02","PT7.5H",NA,NA
"PC","S1","S1-07","DrugA","SERUM",0,"ug/mL","2024-02-06T19:56:09","2024-02-06T08:02:02","PT12H",NA,NA
"PC","S1","S1-07","DrugA","SERUM",0,"ug/mL","2024-02-07T07:48:07","2024-02-07T07:53:13","PT-0.083H",NA,NA
"PC","S1","S1-07","DrugA","SERUM",4.127,"ug/mL","2024-02-07T08:24:10","2024-02-07T07:53:13","PT0.5H",NA,NA
"PC","S1","S1-07","DrugA","SERUM",2.652,"ug/mL","2024-02-07T09:23:02","2024-02-07T07:53:13","PT1.5H",NA,NA
"PC","S1","S1-07","DrugA","SERUM",2.535,"ug/mL","2024-02-07T09:26:09","2024-02-07T07:53:13","PT1.5H",NA,NA
"PC","S1","S1-07","DrugA","SERUM",1.268,"ug/mL","2024-02-07T10:53:09","2024-02-07T07:53:13","PT3H",NA,NA
"PC","S1","S1-07","DrugA","SERUM",0.556,"ug/mL","2024-02-07T12:22:19","2024-02-07T07:53:13","PT4.5H",NA,NA
"PC","S1","S1-07","DrugA","SERUM",0.277,"ug/mL","2024-02-07T13:56:31","2024-02-07T07:53:13","PT6H",NA,NA
"PC","S1","S1-07","DrugA","SERUM",0.174,"ug/mL","2024-02-07T15:27:18","2024-02-07T07:53:13","PT7.5H",NA,NA
"PC","S1","S1-07","DrugA","SERUM",0.002,"ug/mL","2024-02-07T19:50:56","2024-02-07T07:53:13","PT12H",NA,NA
"PC","S1","S1-07","DrugA","SERUM",0.042,"ug/mL","2024-02-08T08:03:32","2024-02-08T08:08:34","PT-0.083H",NA,NA
"PC","S1","S1-07","DrugA","SERUM",4.206,"ug/mL","2024-02-08T08:41:42","2024-02-08T08:08:34","PT0.5H",NA,NA
"PC","S1","S1-07","DrugA","SERUM",2.595,"ug/mL","2024-02-08T09:35:06","2024-02-08T08:08:34","PT1.5H",NA,NA
"PC","S1","S1-07","DrugA","SERUM",2.599,"ug/mL","2024-02-08T09:39:14","2024-02-08T08:08:34","PT1.5H",NA,NA
"PC","S1","S1-07","DrugA","SERUM",1.123,"ug/mL","2024-02-08T11:06:39","2024-02-08T08:08:34","PT3H",NA,NA
"PC","S1","S1-07","DrugA","SERUM",0.583,"ug/mL","2024-02-08T12:35:02","2024-02-08T08:08:34","PT4.5H",NA,NA
"PC","S1","S1-07","DrugA","SERUM",0.248,"ug/mL","2024-02-08T14:07:51","2024-02-08T08:08:34","PT6H",NA,NA
"PC","S1","S1-07","DrugA","SERUM",0.177,"ug/mL","2024-02-08T15:34:55","2024-02-08T08:08:34","PT7.5H",NA,NA
"PC","S1","S1-07","DrugA","SERUM",0.028,"ug/mL","2024-02-08T20:09:57","2024-02-08T08:08:34","PT12H",NA,NA
"PC","S1","S1-07","DrugA","SERUM",0,"ug/mL","2024-02-09T08:06:50","2024-02-09T08:11:52","PT-0.083H",NA,NA
"PC","S1","S1-07","DrugA","SERUM",4.265,"ug/mL","2024-02-09T08:42:10","2024-02-09T08:11:52","PT0.5H",NA,NA
"PC","S1","S1-07","DrugA","SERUM",2.704,"ug/mL","2024-02-09T09:37:30","2024-02-09T08:11:52","PT1.5H",NA,NA
"PC","S1","S1-07","DrugA","SERUM",2.548,"ug/mL","2024-02-09T09:41:52","2024-02-09T08:11:52","PT1.5H",NA,NA
"PC","S1","S1-07","DrugA","SERUM",1.174,"ug/mL","2024-02-09T11:13:48","2024-02-09T08:11:52","PT3H",NA,NA
"PC","S1","S1-07","DrugA","SERUM",0.517,"ug/mL","2024-02-09T12:41:56","2024-02-09T08:11:52","PT4.5H",NA,NA
"PC","S1","S1-07","DrugA","SERUM",0.198,"ug/mL","2024-02-09T14:11:24","2024-02-09T08:11:52","PT6H",NA,NA
"PC","S1","S1-07","DrugA","SERUM",0.105,"ug/mL","2024-02-09T15:40:19","2024-02-09T08:11:52","PT7.5H",NA,NA
"PC","S1","S1-07","DrugA","SERUM",0.013,"ug/mL","2024-02-09T20:12:18","2024-02-09T08:11:52","PT12H",NA,NA
"PC","S1","S1-07","Metab-DrugA","SERUM",0.114,"ug/mL","2024-02-02T07:55:01","2024-02-02T08:00:00","PT-0.083H",NA,NA
"PC","S1","S1-07","Metab-DrugA","SERUM",4.088,"ug/mL","2024-02-02T08:34:58","2024-02-02T08:00:00","PT0.5H",NA,NA
"PC","S1","S1-07","Metab-DrugA","SERUM",2.636,"ug/mL","2024-02-02T09:28:15","2024-02-02T08:00:00","PT1.5H",NA,NA
"PC","S1","S1-07","Metab-DrugA","SERUM",2.441,"ug/mL","2024-02-02T09:32:20","2024-02-02T08:00:00","PT1.5H",NA,NA
"PC","S1","S1-07","Metab-DrugA","SERUM",1.236,"ug/mL","2024-02-02T10:55:22","2024-02-02T08:00:00","PT3H",NA,NA
"PC","S1","S1-07","Metab-DrugA","SERUM",0.64,"ug/mL","2024-02-02T12:30:54","2024-02-02T08:00:00","PT4.5H",NA,NA
"PC","S1","S1-07","Metab-DrugA","SERUM",0.27,"ug/mL","2024-02-02T13:56:20","2024-02-02T08:00:00","PT6H",NA,NA
"PC","S1","S1-07","Metab-DrugA","SERUM",0.156,"ug/mL","2024-02-02T15:32:02","2024-02-02T08:00:00","PT7.5H",NA,NA
"PC","S1","S1-07","Metab-DrugA","SERUM",0.046,"ug/mL","2024-02-02T20:04:40","2024-02-02T08:00:00","PT12H",NA,NA
"PC","S1","S1-07","Metab-DrugA","SERUM",0,"ug/mL","2024-02-03T08:00:21","2024-02-03T08:05:16","PT-0.083H",NA,NA
"PC","S1","S1-07","Metab-DrugA","SERUM",4.125,"ug/mL","2024-02-03T08:39:50","2024-02-03T08:05:16","PT0.5H",NA,NA
"PC","S1","S1-07","Metab-DrugA","SERUM",2.7,"ug/mL","2024-02-03T09:31:12","2024-02-03T08:05:16","PT1.5H",NA,NA
"PC","S1","S1-07","Metab-DrugA","SERUM",2.451,"ug/mL","2024-02-03T09:41:31","2024-02-03T08:05:16","PT1.5H",NA,NA
"PC","S1","S1-07","Metab-DrugA","SERUM",1.238,"ug/mL","2024-02-03T11:05:13","2024-02-03T08:05:16","PT3H",NA,NA
"PC","S1","S1-07","Metab-DrugA","SERUM",0.563,"ug/mL","2024-02-03T12:31:58","2024-02-03T08:05:16","PT4.5H",NA,NA
"PC","S1","S1-07","Metab-DrugA","SERUM",0.216,"ug/mL","2024-02-03T14:05:13","2024-02-03T08:05:16","PT6H",NA,NA
"PC","S1","S1-07","Metab-DrugA","SERUM",0.159,"ug/mL","2024-02-03T15:31:58","2024-02-03T08:05:16","PT7.5H",NA,NA
"PC","S1","S1-07","Metab-DrugA","SERUM",0.084,"ug/mL","2024-02-03T20:02:09","2024-02-03T08:05:16","PT12H",NA,NA
"PC","S1","S1-07","Metab-DrugA","SERUM",0.009,"ug/mL","2024-02-04T07:57:25","2024-02-04T08:02:24","PT-0.083H",NA,NA
"PC","S1","S1-07","Metab-DrugA","SERUM",4.271,"ug/mL","2024-02-04T08:32:38","2024-02-04T08:02:24","PT0.5H",NA,NA
"PC","S1","S1-07","Metab-DrugA","SERUM",2.609,"ug/mL","2024-02-04T09:31:15","2024-02-04T08:02:24","PT1.5H",NA,NA
"PC","S1","S1-07","Metab-DrugA","SERUM",2.603,"ug/mL","2024-02-04T09:35:27","2024-02-04T08:02:24","PT1.5H",NA,NA
"PC","S1","S1-07","Metab-DrugA","SERUM",1.264,"ug/mL","2024-02-04T11:04:12","2024-02-04T08:02:24","PT3H",NA,NA
"PC","S1","S1-07","Metab-DrugA","SERUM",0.645,"ug/mL","2024-02-04T12:33:25","2024-02-04T08:02:24","PT4.5H",NA,NA
"PC","S1","S1-07","Metab-DrugA","SERUM",0.3,"ug/mL","2024-02-04T14:04:30","2024-02-04T08:02:24","PT6H",NA,NA
"PC","S1","S1-07","Metab-DrugA","SERUM",0.141,"ug/mL","2024-02-04T15:34:33","2024-02-04T08:02:24","PT7.5H",NA,NA
"PC","S1","S1-07","Metab-DrugA","SERUM",0.038,"ug/mL","2024-02-04T20:05:13","2024-02-04T08:02:24","PT12H",NA,NA
"PC","S1","S1-07","Metab-DrugA","SERUM",0.013,"ug/mL","2024-02-05T07:51:18","2024-02-05T07:56:20","PT-0.083H",NA,NA
"PC","S1","S1-07","Metab-DrugA","SERUM",4.163,"ug/mL","2024-02-05T08:28:01","2024-02-05T07:56:20","PT0.5H",NA,NA
"PC","S1","S1-07","Metab-DrugA","SERUM",2.688,"ug/mL","2024-02-05T09:27:10","2024-02-05T07:56:20","PT1.5H",NA,NA
"PC","S1","S1-07","Metab-DrugA","SERUM",2.463,"ug/mL","2024-02-05T09:29:56","2024-02-05T07:56:20","PT1.5H",NA,NA
"PC","S1","S1-07","Metab-DrugA","SERUM",1.281,"ug/mL","2024-02-05T10:55:44","2024-02-05T07:56:20","PT3H",NA,NA
"PC","S1","S1-07","Metab-DrugA","SERUM",0.531,"ug/mL","2024-02-05T12:23:42","2024-02-05T07:56:20","PT4.5H",NA,NA
"PC","S1","S1-07","Metab-DrugA","SERUM",0.233,"ug/mL","2024-02-05T13:54:36","2024-02-05T07:56:20","PT6H",NA,NA
"PC","S1","S1-07","Metab-DrugA","SERUM",0.095,"ug/mL","2024-02-05T15:25:37","2024-02-05T07:56:20","PT7.5H",NA,NA
"PC","S1","S1-07","Metab-DrugA","SERUM",0,"ug/mL","2024-02-05T19:56:06","2024-02-05T07:56:20","PT12H",NA,NA
"PC","S1","S1-07","Metab-DrugA","SERUM",0,"ug/mL","2024-02-06T07:57:07","2024-02-06T08:02:02","PT-0.083H",NA,NA
"PC","S1","S1-07","Metab-DrugA","SERUM",4.352,"ug/mL","2024-02-06T08:28:58","2024-02-06T08:02:02","PT0.5H",NA,NA
"PC","S1","S1-07","Metab-DrugA","SERUM",2.687,"ug/mL","2024-02-06T09:28:19","2024-02-06T08:02:02","PT1.5H",NA,NA
"PC","S1","S1-07","Metab-DrugA","SERUM",2.753,"ug/mL","2024-02-06T09:29:34","2024-02-06T08:02:02","PT1.5H",NA,NA
"PC","S1","S1-07","Metab-DrugA","SERUM",1.237,"ug/mL","2024-02-06T11:04:44","2024-02-06T08:02:02","PT3H",NA,NA
"PC","S1","S1-07","Metab-DrugA","SERUM",0.494,"ug/mL","2024-02-06T12:32:16","2024-02-06T08:02:02","PT4.5H",NA,NA
"PC","S1","S1-07","Metab-DrugA","SERUM",0.302,"ug/mL","2024-02-06T14:00:14","2024-02-06T08:02:02","PT6H",NA,NA
"PC","S1","S1-07","Metab-DrugA","SERUM",0.134,"ug/mL","2024-02-06T15:31:04","2024-02-06T08:02:02","PT7.5H",NA,NA
"PC","S1","S1-07","Metab-DrugA","SERUM",0.111,"ug/mL","2024-02-06T19:56:09","2024-02-06T08:02:02","PT12H",NA,NA
"PC","S1","S1-07","Metab-DrugA","SERUM",0.025,"ug/mL","2024-02-07T07:48:07","2024-02-07T07:53:13","PT-0.083H",NA,NA
"PC","S1","S1-07","Metab-DrugA","SERUM",4.236,"ug/mL","2024-02-07T08:24:10","2024-02-07T07:53:13","PT0.5H",NA,NA
"PC","S1","S1-07","Metab-DrugA","SERUM",2.539,"ug/mL","2024-02-07T09:23:02","2024-02-07T07:53:13","PT1.5H",NA,NA
"PC","S1","S1-07","Metab-DrugA","SERUM",2.537,"ug/mL","2024-02-07T09:26:09","2024-02-07T07:53:13","PT1.5H",NA,NA
"PC","S1","S1-07","Metab-DrugA","SERUM",1.288,"ug/mL","2024-02-07T10:53:09","2024-02-07T07:53:13","PT3H",NA,NA
"PC","S1","S1-07","Metab-DrugA","SERUM",0.539,"ug/mL","2024-02-07T12:22:19","2024-02-07T07:53:13","PT4.5H",NA,NA
"PC","S1","S1-07","Metab-DrugA","SERUM",0.228,"ug/mL","2024-02-07T13:56:31","2024-02-07T07:53:13","PT6H",NA,NA
"PC","S1","S1-07","Metab-DrugA","SERUM",0.174,"ug/mL","2024-02-07T15:27:18","2024-02-07T07:53:13","PT7.5H",NA,NA
"PC","S1","S1-07","Metab-DrugA","SERUM",0.06,"ug/mL","2024-02-07T19:50:56","2024-02-07T07:53:13","PT12H",NA,NA
"PC","S1","S1-07","Metab-DrugA","SERUM",0,"ug/mL","2024-02-08T08:03:32","2024-02-08T08:08:34","PT-0.083H",NA,NA
"PC","S1","S1-07","Metab-DrugA","SERUM",4.149,"ug/mL","2024-02-08T08:41:42","2024-02-08T08:08:34","PT0.5H",NA,NA
"PC","S1","S1-07","Metab-DrugA","SERUM",2.661,"ug/mL","2024-02-08T09:35:06","2024-02-08T08:08:34","PT1.5H",NA,NA
"PC","S1","S1-07","Metab-DrugA","SERUM",2.639,"ug/mL","2024-02-08T09:39:14","2024-02-08T08:08:34","PT1.5H",NA,NA
"PC","S1","S1-07","Metab-DrugA","SERUM",1.25,"ug/mL","2024-02-08T11:06:39","2024-02-08T08:08:34","PT3H",NA,NA
"PC","S1","S1-07","Metab-DrugA","SERUM",0.61,"ug/mL","2024-02-08T12:35:02","2024-02-08T08:08:34","PT4.5H",NA,NA
"PC","S1","S1-07","Metab-DrugA","SERUM",0.357,"ug/mL","2024-02-08T14:07:51","2024-02-08T08:08:34","PT6H",NA,NA
"PC","S1","S1-07","Metab-DrugA","SERUM",0.177,"ug/mL","2024-02-08T15:34:55","2024-02-08T08:08:34","PT7.5H",NA,NA
"PC","S1","S1-07","Metab-DrugA","SERUM",0.074,"ug/mL","2024-02-08T20:09:57","2024-02-08T08:08:34","PT12H",NA,NA
"PC","S1","S1-07","Metab-DrugA","SERUM",0.086,"ug/mL","2024-02-09T08:06:50","2024-02-09T08:11:52","PT-0.083H",NA,NA
"PC","S1","S1-07","Metab-DrugA","SERUM",4.257,"ug/mL","2024-02-09T08:42:10","2024-02-09T08:11:52","PT0.5H",NA,NA
"PC","S1","S1-07","Metab-DrugA","SERUM",2.69,"ug/mL","2024-02-09T09:37:30","2024-02-09T08:11:52","PT1.5H",NA,NA
"PC","S1","S1-07","Metab-DrugA","SERUM",2.607,"ug/mL","2024-02-09T09:41:52","2024-02-09T08:11:52","PT1.5H",NA,NA
"PC","S1","S1-07","Metab-DrugA","SERUM",1.23,"ug/mL","2024-02-09T11:13:48","2024-02-09T08:11:52","PT3H",NA,NA
"PC","S1","S1-07","Metab-DrugA","SERUM",0.554,"ug/mL","2024-02-09T12:41:56","2024-02-09T08:11:52","PT4.5H",NA,NA
"PC","S1","S1-07","Metab-DrugA","SERUM",0.286,"ug/mL","2024-02-09T14:11:24","2024-02-09T08:11:52","PT6H",NA,NA
"PC","S1","S1-07","Metab-DrugA","SERUM",0.096,"ug/mL","2024-02-09T15:40:19","2024-02-09T08:11:52","PT7.5H",NA,NA
"PC","S1","S1-07","Metab-DrugA","SERUM",0.031,"ug/mL","2024-02-09T20:12:18","2024-02-09T08:11:52","PT12H",NA,NA
"PC","S1","S1-08","DrugA","SERUM",0,"ug/mL","2024-02-05T07:55:01","2024-02-05T08:00:00","PT-0.083H",NA,NA
"PC","S1","S1-08","DrugA","SERUM",7.9,"ug/mL","2024-02-05T08:28:37","2024-02-05T08:00:00","PT0.5H",NA,NA
"PC","S1","S1-08","DrugA","SERUM",4.675,"ug/mL","2024-02-05T09:30:21","2024-02-05T08:00:00","PT1.5H",NA,NA
"PC","S1","S1-08","DrugA","SERUM",4.678,"ug/mL","2024-02-05T09:31:33","2024-02-05T08:00:00","PT1.5H",NA,NA
"PC","S1","S1-08","DrugA","SERUM",2.263,"ug/mL","2024-02-05T10:58:40","2024-02-05T08:00:00","PT3H",NA,NA
"PC","S1","S1-08","DrugA","SERUM",1.009,"ug/mL","2024-02-05T12:33:00","2024-02-05T08:00:00","PT4.5H",NA,NA
"PC","S1","S1-08","DrugA","SERUM",0.408,"ug/mL","2024-02-05T13:58:08","2024-02-05T08:00:00","PT6H",NA,NA
"PC","S1","S1-08","DrugA","SERUM",0.16,"ug/mL","2024-02-05T15:27:46","2024-02-05T08:00:00","PT7.5H",NA,NA
"PC","S1","S1-08","DrugA","SERUM",0,"ug/mL","2024-02-05T19:52:40","2024-02-05T08:00:00","PT12H",NA,NA
"PC","S1","S1-08","DrugA","SERUM",0.068,"ug/mL","2024-02-06T07:48:50","2024-02-06T07:53:45","PT-0.083H",NA,NA
"PC","S1","S1-08","DrugA","SERUM",7.899,"ug/mL","2024-02-06T08:21:46","2024-02-06T07:53:45","PT0.5H",NA,NA
"PC","S1","S1-08","DrugA","SERUM",4.839,"ug/mL","2024-02-06T09:23:16","2024-02-06T07:53:45","PT1.5H",NA,NA
"PC","S1","S1-08","DrugA","SERUM",4.668,"ug/mL","2024-02-06T09:23:20","2024-02-06T07:53:45","PT1.5H",NA,NA
"PC","S1","S1-08","DrugA","SERUM",2.209,"ug/mL","2024-02-06T10:59:06","2024-02-06T07:53:45","PT3H",NA,NA
"PC","S1","S1-08","DrugA","SERUM",1.067,"ug/mL","2024-02-06T12:28:33","2024-02-06T07:53:45","PT4.5H",NA,NA
"PC","S1","S1-08","DrugA","SERUM",0.449,"ug/mL","2024-02-06T13:56:27","2024-02-06T07:53:45","PT6H",NA,NA
"PC","S1","S1-08","DrugA","SERUM",0.271,"ug/mL","2024-02-06T15:23:49","2024-02-06T07:53:45","PT7.5H",NA,NA
"PC","S1","S1-08","DrugA","SERUM",0.053,"ug/mL","2024-02-06T19:55:30","2024-02-06T07:53:45","PT12H",NA,NA
"PC","S1","S1-08","DrugA","SERUM",0,"ug/mL","2024-02-07T07:58:26","2024-02-07T08:03:25","PT-0.083H",NA,NA
"PC","S1","S1-08","DrugA","SERUM",7.87,"ug/mL","2024-02-07T08:33:18","2024-02-07T08:03:25","PT0.5H",NA,NA
"PC","S1","S1-08","DrugA","SERUM",4.729,"ug/mL","2024-02-07T09:32:56","2024-02-07T08:03:25","PT1.5H",NA,NA
"PC","S1","S1-08","DrugA","SERUM",4.655,"ug/mL","2024-02-07T09:37:48","2024-02-07T08:03:25","PT1.5H",NA,NA
"PC","S1","S1-08","DrugA","SERUM",2.173,"ug/mL","2024-02-07T11:03:21","2024-02-07T08:03:25","PT3H",NA,NA
"PC","S1","S1-08","DrugA","SERUM",1.156,"ug/mL","2024-02-07T12:29:16","2024-02-07T08:03:25","PT4.5H",NA,NA
"PC","S1","S1-08","DrugA","SERUM",0.484,"ug/mL","2024-02-07T14:00:25","2024-02-07T08:03:25","PT6H",NA,NA
"PC","S1","S1-08","DrugA","SERUM",0.262,"ug/mL","2024-02-07T15:28:40","2024-02-07T08:03:25","PT7.5H",NA,NA
"PC","S1","S1-08","DrugA","SERUM",0.021,"ug/mL","2024-02-07T20:05:24","2024-02-07T08:03:25","PT12H",NA,NA
"PC","S1","S1-08","DrugA","SERUM",0,"ug/mL","2024-02-08T07:54:10","2024-02-08T07:59:09","PT-0.083H",NA,NA
"PC","S1","S1-08","DrugA","SERUM",7.578,"ug/mL","2024-02-08T08:32:20","2024-02-08T07:59:09","PT0.5H",NA,NA
"PC","S1","S1-08","DrugA","SERUM",4.861,"ug/mL","2024-02-08T09:26:52","2024-02-08T07:59:09","PT1.5H",NA,NA
"PC","S1","S1-08","DrugA","SERUM",4.522,"ug/mL","2024-02-08T09:34:26","2024-02-08T07:59:09","PT1.5H",NA,NA
"PC","S1","S1-08","DrugA","SERUM",2.252,"ug/mL","2024-02-08T11:01:44","2024-02-08T07:59:09","PT3H",NA,NA
"PC","S1","S1-08","DrugA","SERUM",1.066,"ug/mL","2024-02-08T12:28:26","2024-02-08T07:59:09","PT4.5H",NA,NA
"PC","S1","S1-08","DrugA","SERUM",0.496,"ug/mL","2024-02-08T14:01:40","2024-02-08T07:59:09","PT6H",NA,NA
"PC","S1","S1-08","DrugA","SERUM",0.237,"ug/mL","2024-02-08T15:27:03","2024-02-08T07:59:09","PT7.5H",NA,NA
"PC","S1","S1-08","DrugA","SERUM",0.004,"ug/mL","2024-02-08T19:58:15","2024-02-08T07:59:09","PT12H",NA,NA
"PC","S1","S1-08","DrugA","SERUM",0.01,"ug/mL","2024-02-09T08:09:25","2024-02-09T08:14:24","PT-0.083H",NA,NA
"PC","S1","S1-08","DrugA","SERUM",7.932,"ug/mL","2024-02-09T08:42:57","2024-02-09T08:14:24","PT0.5H",NA,NA
"PC","S1","S1-08","DrugA","SERUM",4.815,"ug/mL","2024-02-09T09:43:04","2024-02-09T08:14:24","PT1.5H",NA,NA
"PC","S1","S1-08","DrugA","SERUM",4.684,"ug/mL","2024-02-09T09:46:40","2024-02-09T08:14:24","PT1.5H",NA,NA
"PC","S1","S1-08","DrugA","SERUM",2.307,"ug/mL","2024-02-09T11:15:00","2024-02-09T08:14:24","PT3H",NA,NA
"PC","S1","S1-08","DrugA","SERUM",1.042,"ug/mL","2024-02-09T12:47:52","2024-02-09T08:14:24","PT4.5H",NA,NA
"PC","S1","S1-08","DrugA","SERUM",0.496,"ug/mL","2024-02-09T14:16:48","2024-02-09T08:14:24","PT6H",NA,NA
"PC","S1","S1-08","DrugA","SERUM",0.309,"ug/mL","2024-02-09T15:46:33","2024-02-09T08:14:24","PT7.5H",NA,NA
"PC","S1","S1-08","DrugA","SERUM",0.022,"ug/mL","2024-02-09T20:12:18","2024-02-09T08:14:24","PT12H",NA,NA
"PC","S1","S1-08","DrugA","SERUM",0,"ug/mL","2024-02-10T07:54:43","2024-02-10T07:59:45","PT-0.083H",NA,NA
"PC","S1","S1-08","DrugA","SERUM",7.767,"ug/mL","2024-02-10T08:29:24","2024-02-10T07:59:45","PT0.5H",NA,NA
"PC","S1","S1-08","DrugA","SERUM",4.802,"ug/mL","2024-02-10T09:27:00","2024-02-10T07:59:45","PT1.5H",NA,NA
"PC","S1","S1-08","DrugA","SERUM",4.523,"ug/mL","2024-02-10T09:33:07","2024-02-10T07:59:45","PT1.5H",NA,NA
"PC","S1","S1-08","DrugA","SERUM",2.476,"ug/mL","2024-02-10T10:50:45","2024-02-10T07:59:45","PT3H",NA,NA
"PC","S1","S1-08","DrugA","SERUM",1.054,"ug/mL","2024-02-10T12:26:24","2024-02-10T07:59:45","PT4.5H",NA,NA
"PC","S1","S1-08","DrugA","SERUM",0.56,"ug/mL","2024-02-10T13:58:22","2024-02-10T07:59:45","PT6H",NA,NA
"PC","S1","S1-08","DrugA","SERUM",0.352,"ug/mL","2024-02-10T15:31:08","2024-02-10T07:59:45","PT7.5H",NA,NA
"PC","S1","S1-08","DrugA","SERUM",0.003,"ug/mL","2024-02-10T20:05:42","2024-02-10T07:59:45","PT12H",NA,NA
"PC","S1","S1-08","DrugA","SERUM",0.019,"ug/mL","2024-02-11T07:59:09","2024-02-11T08:04:08","PT-0.083H",NA,NA
"PC","S1","S1-08","DrugA","SERUM",8.015,"ug/mL","2024-02-11T08:30:14","2024-02-11T08:04:08","PT0.5H",NA,NA
"PC","S1","S1-08","DrugA","SERUM",4.98,"ug/mL","2024-02-11T09:31:22","2024-02-11T08:04:08","PT1.5H",NA,NA
"PC","S1","S1-08","DrugA","SERUM",4.691,"ug/mL","2024-02-11T09:33:36","2024-02-11T08:04:08","PT1.5H",NA,NA
"PC","S1","S1-08","DrugA","SERUM",2.368,"ug/mL","2024-02-11T11:00:03","2024-02-11T08:04:08","PT3H",NA,NA
"PC","S1","S1-08","DrugA","SERUM",1.166,"ug/mL","2024-02-11T12:26:34","2024-02-11T08:04:08","PT4.5H",NA,NA
"PC","S1","S1-08","DrugA","SERUM",0.534,"ug/mL","2024-02-11T14:06:39","2024-02-11T08:04:08","PT6H",NA,NA
"PC","S1","S1-08","DrugA","SERUM",0.292,"ug/mL","2024-02-11T15:31:12","2024-02-11T08:04:08","PT7.5H",NA,NA
"PC","S1","S1-08","DrugA","SERUM",0.055,"ug/mL","2024-02-11T20:03:54","2024-02-11T08:04:08","PT12H",NA,NA
"PC","S1","S1-08","DrugA","SERUM",0.03,"ug/mL","2024-02-12T07:55:15","2024-02-12T08:00:10","PT-0.083H",NA,NA
"PC","S1","S1-08","DrugA","SERUM",7.648,"ug/mL","2024-02-12T08:31:40","2024-02-12T08:00:10","PT0.5H",NA,NA
"PC","S1","S1-08","DrugA","SERUM",4.727,"ug/mL","2024-02-12T09:30:39","2024-02-12T08:00:10","PT1.5H",NA,NA
"PC","S1","S1-08","DrugA","SERUM",4.658,"ug/mL","2024-02-12T09:31:22","2024-02-12T08:00:10","PT1.5H",NA,NA
"PC","S1","S1-08","DrugA","SERUM",2.397,"ug/mL","2024-02-12T10:58:55","2024-02-12T08:00:10","PT3H",NA,NA
"PC","S1","S1-08","DrugA","SERUM",1.116,"ug/mL","2024-02-12T12:27:21","2024-02-12T08:00:10","PT4.5H",NA,NA
"PC","S1","S1-08","DrugA","SERUM",0.528,"ug/mL","2024-02-12T14:03:07","2024-02-12T08:00:10","PT6H",NA,NA
"PC","S1","S1-08","DrugA","SERUM",0.121,"ug/mL","2024-02-12T15:31:51","2024-02-12T08:00:10","PT7.5H",NA,NA
"PC","S1","S1-08","DrugA","SERUM",0,"ug/mL","2024-02-12T20:00:07","2024-02-12T08:00:10","PT12H",NA,NA
"PC","S1","S1-08","Metab-DrugA","SERUM",0,"ug/mL","2024-02-05T07:55:01","2024-02-05T08:00:00","PT-0.083H",NA,NA
"PC","S1","S1-08","Metab-DrugA","SERUM",7.865,"ug/mL","2024-02-05T08:28:37","2024-02-05T08:00:00","PT0.5H",NA,NA
"PC","S1","S1-08","Metab-DrugA","SERUM",4.778,"ug/mL","2024-02-05T09:30:21","2024-02-05T08:00:00","PT1.5H",NA,NA
"PC","S1","S1-08","Metab-DrugA","SERUM",4.645,"ug/mL","2024-02-05T09:31:33","2024-02-05T08:00:00","PT1.5H",NA,NA
"PC","S1","S1-08","Metab-DrugA","SERUM",2.221,"ug/mL","2024-02-05T10:58:40","2024-02-05T08:00:00","PT3H",NA,NA
"PC","S1","S1-08","Metab-DrugA","SERUM",1.057,"ug/mL","2024-02-05T12:33:00","2024-02-05T08:00:00","PT4.5H",NA,NA
"PC","S1","S1-08","Metab-DrugA","SERUM",0.356,"ug/mL","2024-02-05T13:58:08","2024-02-05T08:00:00","PT6H",NA,NA
"PC","S1","S1-08","Metab-DrugA","SERUM",0.245,"ug/mL","2024-02-05T15:27:46","2024-02-05T08:00:00","PT7.5H",NA,NA
"PC","S1","S1-08","Metab-DrugA","SERUM",0.037,"ug/mL","2024-02-05T19:52:40","2024-02-05T08:00:00","PT12H",NA,NA
"PC","S1","S1-08","Metab-DrugA","SERUM",0.117,"ug/mL","2024-02-06T07:48:50","2024-02-06T07:53:45","PT-0.083H",NA,NA
"PC","S1","S1-08","Metab-DrugA","SERUM",7.889,"ug/mL","2024-02-06T08:21:46","2024-02-06T07:53:45","PT0.5H",NA,NA
"PC","S1","S1-08","Metab-DrugA","SERUM",4.702,"ug/mL","2024-02-06T09:23:16","2024-02-06T07:53:45","PT1.5H",NA,NA
"PC","S1","S1-08","Metab-DrugA","SERUM",4.855,"ug/mL","2024-02-06T09:23:20","2024-02-06T07:53:45","PT1.5H",NA,NA
"PC","S1","S1-08","Metab-DrugA","SERUM",2.153,"ug/mL","2024-02-06T10:59:06","2024-02-06T07:53:45","PT3H",NA,NA
"PC","S1","S1-08","Metab-DrugA","SERUM",1.013,"ug/mL","2024-02-06T12:28:33","2024-02-06T07:53:45","PT4.5H",NA,NA
"PC","S1","S1-08","Metab-DrugA","SERUM",0.512,"ug/mL","2024-02-06T13:56:27","2024-02-06T07:53:45","PT6H",NA,NA
"PC","S1","S1-08","Metab-DrugA","SERUM",0.213,"ug/mL","2024-02-06T15:23:49","2024-02-06T07:53:45","PT7.5H",NA,NA
"PC","S1","S1-08","Metab-DrugA","SERUM",0,"ug/mL","2024-02-06T19:55:30","2024-02-06T07:53:45","PT12H",NA,NA
"PC","S1","S1-08","Metab-DrugA","SERUM",0.039,"ug/mL","2024-02-07T07:58:26","2024-02-07T08:03:25","PT-0.083H",NA,NA
"PC","S1","S1-08","Metab-DrugA","SERUM",7.799,"ug/mL","2024-02-07T08:33:18","2024-02-07T08:03:25","PT0.5H",NA,NA
"PC","S1","S1-08","Metab-DrugA","SERUM",4.738,"ug/mL","2024-02-07T09:32:56","2024-02-07T08:03:25","PT1.5H",NA,NA
"PC","S1","S1-08","Metab-DrugA","SERUM",4.488,"ug/mL","2024-02-07T09:37:48","2024-02-07T08:03:25","PT1.5H",NA,NA
"PC","S1","S1-08","Metab-DrugA","SERUM",2.193,"ug/mL","2024-02-07T11:03:21","2024-02-07T08:03:25","PT3H",NA,NA
"PC","S1","S1-08","Metab-DrugA","SERUM",1.115,"ug/mL","2024-02-07T12:29:16","2024-02-07T08:03:25","PT4.5H",NA,NA
"PC","S1","S1-08","Metab-DrugA","SERUM",0.463,"ug/mL","2024-02-07T14:00:25","2024-02-07T08:03:25","PT6H",NA,NA
"PC","S1","S1-08","Metab-DrugA","SERUM",0.27,"ug/mL","2024-02-07T15:28:40","2024-02-07T08:03:25","PT7.5H",NA,NA
"PC","S1","S1-08","Metab-DrugA","SERUM",0.086,"ug/mL","2024-02-07T20:05:24","2024-02-07T08:03:25","PT12H",NA,NA
"PC","S1","S1-08","Metab-DrugA","SERUM",0.047,"ug/mL","2024-02-08T07:54:10","2024-02-08T07:59:09","PT-0.083H",NA,NA
"PC","S1","S1-08","Metab-DrugA","SERUM",7.516,"ug/mL","2024-02-08T08:32:20","2024-02-08T07:59:09","PT0.5H",NA,NA
"PC","S1","S1-08","Metab-DrugA","SERUM",4.821,"ug/mL","2024-02-08T09:26:52","2024-02-08T07:59:09","PT1.5H",NA,NA
"PC","S1","S1-08","Metab-DrugA","SERUM",4.52,"ug/mL","2024-02-08T09:34:26","2024-02-08T07:59:09","PT1.5H",NA,NA
"PC","S1","S1-08","Metab-DrugA","SERUM",2.229,"ug/mL","2024-02-08T11:01:44","2024-02-08T07:59:09","PT3H",NA,NA
"PC","S1","S1-08","Metab-DrugA","SERUM",1.08,"ug/mL","2024-02-08T12:28:26","2024-02-08T07:59:09","PT4.5H",NA,NA
"PC","S1","S1-08","Metab-DrugA","SERUM",0.422,"ug/mL","2024-02-08T14:01:40","2024-02-08T07:59:09","PT6H",NA,NA
"PC","S1","S1-08","Metab-DrugA","SERUM",0.222,"ug/mL","2024-02-08T15:27:03","2024-02-08T07:59:09","PT7.5H",NA,NA
"PC","S1","S1-08","Metab-DrugA","SERUM",0.081,"ug/mL","2024-02-08T19:58:15","2024-02-08T07:59:09","PT12H",NA,NA
"PC","S1","S1-08","Metab-DrugA","SERUM",0.047,"ug/mL","2024-02-09T08:09:25","2024-02-09T08:14:24","PT-0.083H",NA,NA
"PC","S1","S1-08","Metab-DrugA","SERUM",7.974,"ug/mL","2024-02-09T08:42:57","2024-02-09T08:14:24","PT0.5H",NA,NA
"PC","S1","S1-08","Metab-DrugA","SERUM",4.726,"ug/mL","2024-02-09T09:43:04","2024-02-09T08:14:24","PT1.5H",NA,NA
"PC","S1","S1-08","Metab-DrugA","SERUM",4.601,"ug/mL","2024-02-09T09:46:40","2024-02-09T08:14:24","PT1.5H",NA,NA
"PC","S1","S1-08","Metab-DrugA","SERUM",2.201,"ug/mL","2024-02-09T11:15:00","2024-02-09T08:14:24","PT3H",NA,NA
"PC","S1","S1-08","Metab-DrugA","SERUM",1.074,"ug/mL","2024-02-09T12:47:52","2024-02-09T08:14:24","PT4.5H",NA,NA
"PC","S1","S1-08","Metab-DrugA","SERUM",0.493,"ug/mL","2024-02-09T14:16:48","2024-02-09T08:14:24","PT6H",NA,NA
"PC","S1","S1-08","Metab-DrugA","SERUM",0.305,"ug/mL","2024-02-09T15:46:33","2024-02-09T08:14:24","PT7.5H",NA,NA
"PC","S1","S1-08","Metab-DrugA","SERUM",0.053,"ug/mL","2024-02-09T20:12:18","2024-02-09T08:14:24","PT12H",NA,NA
"PC","S1","S1-08","Metab-DrugA","SERUM",0.007,"ug/mL","2024-02-10T07:54:43","2024-02-10T07:59:45","PT-0.083H",NA,NA
"PC","S1","S1-08","Metab-DrugA","SERUM",7.903,"ug/mL","2024-02-10T08:29:24","2024-02-10T07:59:45","PT0.5H",NA,NA
"PC","S1","S1-08","Metab-DrugA","SERUM",4.86,"ug/mL","2024-02-10T09:27:00","2024-02-10T07:59:45","PT1.5H",NA,NA
"PC","S1","S1-08","Metab-DrugA","SERUM",4.629,"ug/mL","2024-02-10T09:33:07","2024-02-10T07:59:45","PT1.5H",NA,NA
"PC","S1","S1-08","Metab-DrugA","SERUM",2.407,"ug/mL","2024-02-10T10:50:45","2024-02-10T07:59:45","PT3H",NA,NA
"PC","S1","S1-08","Metab-DrugA","SERUM",1.076,"ug/mL","2024-02-10T12:26:24","2024-02-10T07:59:45","PT4.5H",NA,NA
"PC","S1","S1-08","Metab-DrugA","SERUM",0.468,"ug/mL","2024-02-10T13:58:22","2024-02-10T07:59:45","PT6H",NA,NA
"PC","S1","S1-08","Metab-DrugA","SERUM",0.168,"ug/mL","2024-02-10T15:31:08","2024-02-10T07:59:45","PT7.5H",NA,NA
"PC","S1","S1-08","Metab-DrugA","SERUM",0.012,"ug/mL","2024-02-10T20:05:42","2024-02-10T07:59:45","PT12H",NA,NA
"PC","S1","S1-08","Metab-DrugA","SERUM",0.001,"ug/mL","2024-02-11T07:59:09","2024-02-11T08:04:08","PT-0.083H",NA,NA
"PC","S1","S1-08","Metab-DrugA","SERUM",8.135,"ug/mL","2024-02-11T08:30:14","2024-02-11T08:04:08","PT0.5H",NA,NA
"PC","S1","S1-08","Metab-DrugA","SERUM",4.893,"ug/mL","2024-02-11T09:31:22","2024-02-11T08:04:08","PT1.5H",NA,NA
"PC","S1","S1-08","Metab-DrugA","SERUM",4.727,"ug/mL","2024-02-11T09:33:36","2024-02-11T08:04:08","PT1.5H",NA,NA
"PC","S1","S1-08","Metab-DrugA","SERUM",2.356,"ug/mL","2024-02-11T11:00:03","2024-02-11T08:04:08","PT3H",NA,NA
"PC","S1","S1-08","Metab-DrugA","SERUM",1.069,"ug/mL","2024-02-11T12:26:34","2024-02-11T08:04:08","PT4.5H",NA,NA
"PC","S1","S1-08","Metab-DrugA","SERUM",0.493,"ug/mL","2024-02-11T14:06:39","2024-02-11T08:04:08","PT6H",NA,NA
"PC","S1","S1-08","Metab-DrugA","SERUM",0.265,"ug/mL","2024-02-11T15:31:12","2024-02-11T08:04:08","PT7.5H",NA,NA
"PC","S1","S1-08","Metab-DrugA","SERUM",0,"ug/mL","2024-02-11T20:03:54","2024-02-11T08:04:08","PT12H",NA,NA
"PC","S1","S1-08","Metab-DrugA","SERUM",0.06,"ug/mL","2024-02-12T07:55:15","2024-02-12T08:00:10","PT-0.083H",NA,NA
"PC","S1","S1-08","Metab-DrugA","SERUM",7.658,"ug/mL","2024-02-12T08:31:40","2024-02-12T08:00:10","PT0.5H",NA,NA
"PC","S1","S1-08","Metab-DrugA","SERUM",4.614,"ug/mL","2024-02-12T09:30:39","2024-02-12T08:00:10","PT1.5H",NA,NA
"PC","S1","S1-08","Metab-DrugA","SERUM",4.614,"ug/mL","2024-02-12T09:31:22","2024-02-12T08:00:10","PT1.5H",NA,NA
"PC","S1","S1-08","Metab-DrugA","SERUM",2.157,"ug/mL","2024-02-12T10:58:55","2024-02-12T08:00:10","PT3H",NA,NA
"PC","S1","S1-08","Metab-DrugA","SERUM",1.058,"ug/mL","2024-02-12T12:27:21","2024-02-12T08:00:10","PT4.5H",NA,NA
"PC","S1","S1-08","Metab-DrugA","SERUM",0.527,"ug/mL","2024-02-12T14:03:07","2024-02-12T08:00:10","PT6H",NA,NA
"PC","S1","S1-08","Metab-DrugA","SERUM",0.204,"ug/mL","2024-02-12T15:31:51","2024-02-12T08:00:10","PT7.5H",NA,NA
"PC","S1","S1-08","Metab-DrugA","SERUM",0,"ug/mL","2024-02-12T20:00:07","2024-02-12T08:00:10","PT12H",NA,NA
