"DOMAIN","STUDYID","USUBJID","EXTRT","EXDOSE","EXDOSU","EXROUTE","EXSTDTC","EXENDTC","EXDUR","EXELTM"
"EX","S1","S1-01","DrugA",5,"mg","INTRAVENOUS DRIP","2024-01-15T08:00:00","2024-01-15T10:57:46","PT2.963H","PT0H"
"EX","S1","S1-01","DrugA",5,"mg","INTRAVENOUS DRIP","2024-01-16T08:01:04","2024-01-16T11:01:37","PT3.009H","PT24H"
"EX","S1","S1-01","DrugA",5,"mg","INTRAVENOUS DRIP","2024-01-17T07:54:57","2024-01-17T10:49:33","PT2.91H","PT48H"
"EX","S1","S1-01","DrugA",5,"mg","INTRAVENOUS DRIP","2024-01-18T08:09:36","2024-01-18T11:13:58","PT3.073H","PT72H"
"EX","S1","S1-01","DrugA",5,"mg","INTRAVENOUS DRIP","2024-01-19T08:01:58","2024-01-19T11:02:27","PT3.008H","PT96H"
"EX","S1","S1-01","DrugA",5,"mg","INTRAVENOUS DRIP","2024-01-20T07:55:04","2024-01-20T11:01:37","PT3.109H","PT120H"
"EX","S1","S1-01","DrugA",5,"mg","INTRAVENOUS DRIP","2024-01-21T08:02:56","2024-01-21T11:04:22","PT3.024H","PT144H"
"EX","S1","S1-01","DrugA",5,"mg","INTRAVENOUS DRIP","2024-01-22T08:04:26","2024-01-22T11:02:20","PT2.965H","PT168H"
"EX","S1","S1-02","DrugA",10,"mg","INTRAVENOUS DRIP","2024-01-18T08:00:00","2024-01-18T11:01:51","PT3.031H","PT0H"
"EX","S1","S1-02","DrugA",10,"mg","INTRAVENOUS DRIP","2024-01-19T07:58:08","2024-01-19T10:55:19","PT2.953H","PT24H"
"EX","S1","S1-02","DrugA",10,"mg","INTRAVENOUS DRIP","2024-01-20T08:09:03","2024-01-20T11:05:16","PT2.937H","PT48H"
"EX","S1","S1-02","DrugA",10,"mg","INTRAVENOUS DRIP","2024-01-21T08:02:20","2024-01-21T11:03:14","PT3.015H","PT72H"
"EX","S1","S1-02","DrugA",10,"mg","INTRAVENOUS DRIP","2024-01-22T07:56:16","2024-01-22T10:54:57","PT2.978H","PT96H"
"EX","S1","S1-02","DrugA",10,"mg","INTRAVENOUS DRIP","2024-01-23T07:46:44","2024-01-23T10:46:44","PT3H","PT120H"
"EX","S1","S1-02","DrugA",10,"mg","INTRAVENOUS DRIP","2024-01-24T08:06:43","2024-01-24T11:06:57","PT3.004H","PT144H"
"EX","S1","S1-02","DrugA",10,"mg","INTRAVENOUS DRIP","2024-01-25T07:59:45","2024-01-25T10:58:01","PT2.971H","PT168H"
"EX","S1","S1-03","DrugA",5,"mg","INTRAVENOUS DRIP","2024-01-21T08:00:00","2024-01-21T10:58:19","PT2.972H","PT0H"
"EX","S1","S1-03","DrugA",5,"mg","INTRAVENOUS DRIP","2024-01-22T08:05:38","2024-01-22T11:05:13","PT2.993H","PT24H"
"EX","S1","S1-03","DrugA",5,"mg","INTRAVENOUS DRIP","2024-01-23T08:04:55","2024-01-23T11:08:27","PT3.059H","PT48H"
"EX","S1","S1-03","DrugA",5,"mg","INTRAVENOUS DRIP","2024-01-24T08:03:32","2024-01-24T10:58:58","PT2.924H","PT72H"
"EX","S1","S1-03","DrugA",5,"mg","INTRAVENOUS DRIP","2024-01-25T08:05:31","2024-01-25T11:07:19","PT3.03H","PT96H"
"EX","S1","S1-03","DrugA",5,"mg","INTRAVENOUS DRIP","2024-01-26T08:04:40","2024-01-26T11:05:42","PT3.017H","PT120H"
"EX","S1","S1-03","DrugA",5,"mg","INTRAVENOUS DRIP","2024-01-27T08:00:25","2024-01-27T11:03:36","PT3.053H","PT144H"
"EX","S1","S1-03","DrugA",5,"mg","INTRAVENOUS DRIP","2024-01-28T07:48:03","2024-01-28T10:47:09","PT2.985H","PT168H"
"EX","S1","S1-04","DrugA",10,"mg","INTRAVENOUS DRIP","2024-01-24T08:00:00","2024-01-24T11:01:08","PT3.019H","PT0H"
"EX","S1","S1-04","DrugA",10,"mg","INTRAVENOUS DRIP","2024-01-25T07:59:38","2024-01-25T11:00:25","PT3.013H","PT24H"
"EX","S1","S1-04","DrugA",10,"mg","INTRAVENOUS DRIP","2024-01-26T07:59:02","2024-01-26T10:57:25","PT2.973H","PT48H"
"EX","S1","S1-04","DrugA",10,"mg","INTRAVENOUS DRIP","2024-01-27T07:51:10","2024-01-27T10:54:46","PT3.06H","PT72H"
"EX","S1","S1-04","DrugA",10,"mg","INTRAVENOUS DRIP","2024-01-28T07:57:07","2024-01-28T11:00:36","PT3.058H","PT96H"
"EX","S1","S1-04","DrugA",10,"mg","INTRAVENOUS DRIP","2024-01-29T08:02:31","2024-01-29T11:04:37","PT3.035H","PT120H"
"EX","S1","S1-04","DrugA",10,"mg","INTRAVENOUS DRIP","2024-01-30T08:08:09","2024-01-30T11:12:54","PT3.079H","PT144H"
"EX","S1","S1-04","DrugA",10,"mg","INTRAVENOUS DRIP","2024-01-31T07:59:24","2024-01-31T11:01:04","PT3.028H","PT168H"
"EX","S1","S1-05","DrugA",5,"mg","INTRAVENOUS DRIP","2024-01-27T08:00:00","2024-01-27T10:56:09","PT2.936H","PT0H"
"EX","S1","S1-05","DrugA",5,"mg","INTRAVENOUS DRIP","2024-01-28T07:59:42","2024-01-28T10:57:57","PT2.971H","PT24H"
"EX","S1","S1-05","DrugA",5,"mg","INTRAVENOUS DRIP","2024-01-29T07:51:43","2024-01-29T10:48:03","PT2.939H","PT48H"
"EX","S1","S1-05","DrugA",5,"mg","INTRAVENOUS DRIP","2024-01-30T07:57:32","2024-01-30T10:56:06","PT2.976H","PT72H"
"EX","S1","S1-05","DrugA",5,"mg","INTRAVENOUS DRIP","2024-01-31T07:57:39","2024-01-31T10:55:48","PT2.969H","PT96H"
"EX","S1","S1-05","DrugA",5,"mg","INTRAVENOUS DRIP","2024-02-01T07:59:38","2024-02-01T10:59:45","PT3.002H","PT120H"
"EX","S1","S1-05","DrugA",5,"mg","INTRAVENOUS DRIP","2024-02-02T08:06:36","2024-02-02T11:03:50","PT2.954H","PT144H"
"EX","S1","S1-05","DrugA",5,"mg","INTRAVENOUS DRIP","2024-02-03T08:04:33","2024-02-03T11:05:02","PT3.008H","PT168H"
"EX","S1","S1-06","DrugA",10,"mg","INTRAVENOUS BOLUS","2024-01-30T08:00:00","2024-01-30T08:00:00","PT0H","PT0H"
"EX","S1","S1-06","DrugA",10,"mg","INTRAVENOUS BOLUS","2024-01-31T07:58:30","2024-01-31T07:58:30","PT0H","PT24H"
"EX","S1","S1-06","DrugA",10,"mg","INTRAVENOUS BOLUS","2024-02-01T08:04:12","2024-02-01T08:04:12","PT0H","PT48H"
"EX","S1","S1-06","DrugA",10,"mg","INTRAVENOUS BOLUS","2024-02-02T08:03:21","2024-02-02T08:03:21","PT0H","PT72H"
"EX","S1","S1-06","DrugA",10,"mg","INTRAVENOUS BOLUS","2024-02-03T07:55:51","2024-02-03T07:55:51","PT0H","PT96H"
"EX","S1","S1-06","DrugA",10,"mg","INTRAVENOUS BOLUS","2024-02-04T07:55:44","2024-02-04T07:55:44","PT0H","PT120H"
"EX","S1","S1-06","DrugA",10,"mg","INTRAVENOUS BOLUS","2024-02-05T08:02:09","2024-02-05T08:02:09","PT0H","PT144H"
"EX","S1","S1-06","DrugA",10,"mg","INTRAVENOUS BOLUS","2024-02-06T08:04:37","2024-02-06T08:04:37","PT0H","PT168H"
"EX","S1","S1-07","DrugA",5,"mg","INTRAVENOUS BOLUS","2024-02-02T08:00:00","2024-02-02T08:00:00","PT0H","PT0H"
"EX","S1","S1-07","DrugA",5,"mg","INTRAVENOUS BOLUS","2024-02-03T08:05:16","2024-02-03T08:05:16","PT0H","PT24H"
"EX","S1","S1-07","DrugA",5,"mg","INTRAVENOUS BOLUS","2024-02-04T08:02:24","2024-02-04T08:02:24","PT0H","PT48H"
"EX","S1","S1-07","DrugA",5,"mg","INTRAVENOUS BOLUS","2024-02-05T07:56:20","2024-02-05T07:56:20","PT0H","PT72H"
"EX","S1","S1-07","DrugA",5,"mg","INTRAVENOUS BOLUS","2024-02-06T08:02:02","2024-02-06T08:02:02","PT0H","PT96H"
"EX","S1","S1-07","DrugA",5,"mg","INTRAVENOUS BOLUS","2024-02-07T07:53:13","2024-02-07T07:53:13","PT0H","PT120H"
"EX","S1","S1-07","DrugA",5,"mg","INTRAVENOUS BOLUS","2024-02-08T08:08:34","2024-02-08T08:08:34","PT0H","PT144H"
"EX","S1","S1-07","DrugA",5,"mg","INTRAVENOUS BOLUS","2024-02-09T08:11:52","2024-02-09T08:11:52","PT0H","PT168H"
"EX","S1","S1-08","DrugA",10,"mg","INTRAVENOUS BOLUS","2024-02-05T08:00:00","2024-02-05T08:00:00","PT0H","PT0H"
"EX","S1","S1-08","DrugA",10,"mg","INTRAVENOUS BOLUS","2024-02-06T07:53:45","2024-02-06T07:53:45","PT0H","PT24H"
"EX","S1","S1-08","DrugA",10,"mg","INTRAVENOUS BOLUS","2024-02-07T08:03:25","2024-02-07T08:03:25","PT0H","PT48H"
"EX","S1","S1-08","DrugA",10,"mg","INTRAVENOUS BOLUS","2024-02-08T07:59:09","2024-02-08T07:59:09","PT0H","PT72H"
"EX","S1","S1-08","DrugA",10,"mg","INTRAVENOUS BOLUS","2024-02-09T08:14:24","2024-02-09T08:14:24","PT0H","PT96H"
"EX","S1","S1-08","DrugA",10,"mg","INTRAVENOUS BOLUS","2024-02-10T07:59:45","2024-02-10T07:59:45","PT0H","PT120H"
"EX","S1","S1-08","DrugA",10,"mg","INTRAVENOUS BOLUS","2024-02-11T08:04:08","2024-02-11T08:04:08","PT0H","PT144H"
"EX","S1","S1-08","DrugA",10,"mg","INTRAVENOUS BOLUS","2024-02-12T08:00:10","2024-02-12T08:00:10","PT0H","PT168H"
