"","STUDYID","USUBJID","ANALYTE","PCSPEC","DOSEFRQ","DOSNO","AFRLT","ARRLT","NRRLT","NFRLT","PCSTRESC","PARAM","ROUTE","DOSEA","AGE","SEX","RACE","NDOSEDUR","RRLTU","DOSEU","PCLLOQ","DOSETRT","AVISIT","AVAL","AVALU","EVID","ATPTREF","SITEID","TRT01A","TRT01P","PCRFTDTM","HTBL","WTBL","WTBLU","HTBLU","ADOSEDUR","PCSPID","SUBJID","EPOCH","VISIT","PARAMCD","PCTPTREF","AGEU"
"1","XX01","XX01-11101","Analyte01","SERUM","EVERY WEEK",1,-0.17,-0.17,0,0,0,"Analyte01","intravascular",35,52,"M","WHITE",1.5,"Hours","mg",0,"Analyte01","Cycle 1 Day 1",0,"ug/mL",0,"27/07/2021 12:30",339203,"Dummy Treatment Arm A","Dummy Treatment Arm P","2021-07-27 12:30",173,90,"kg","cm",1.47,"Sponsor123",11101,"SCREENING","DAY 23","A1","MOST RECENT DOSE","YEARS"
"2","XX01","XX01-11101","Analyte01","SERUM","EVERY WEEK",1,1.5,1.5,0.5,0.5,7.58,"Analyte01","intravascular",35,52,"M","WHITE",1.5,"Hours","mg",0,"Analyte01","Cycle 1 Day 1",7.58,"ug/mL",0,"15/06/2022 11:25",339203,"Dummy Treatment Arm A","Dummy Treatment Arm P","2021-07-27 12:30",173,90,"kg","cm",1.52,"Sponsor123",11101,"OBSERVATION","DAY 1","A1","MOST RECENT DOSE","YEARS"
"3","XX01","XX01-11101","Analyte01","SERUM","EVERY WEEK",1,5,5,4,4,8.5,"Analyte01","intravascular",35,52,"M","WHITE",1.5,"Hours","mg",0,"Analyte01","Cycle 1 Day 1",8.5,"ug/mL",0,"15/06/2022 11:25",339203,"Dummy Treatment Arm A","Dummy Treatment Arm P","2021-07-27 12:30",173,90,"kg","cm",1.55,"Sponsor123",11101,"OBSERVATION","DAY 5","A1","MOST RECENT DOSE","YEARS"
"4","XX01","XX01-11101","Analyte01","SERUM","EVERY WEEK",1,7.5,7.5,8,8,8.66,"Analyte01","intravascular",35,52,"M","WHITE",1.5,"Hours","mg",0,"Analyte01","Cycle 1 Day 1",8.66,"ug/mL",0,"15/06/2022 11:25",339203,"Dummy Treatment Arm A","Dummy Treatment Arm P","2021-07-27 12:30",173,90,"kg","cm",1.49,"Sponsor123",11101,"OBSERVATION","DAY 7","A1","MOST RECENT DOSE","YEARS"
"5","XX01","XX01-11101","Analyte01","SERUM","EVERY WEEK",1,27.25,27.25,48,48,7.03,"Analyte01","intravascular",35,52,"M","WHITE",1.5,"Hours","mg",0,"Analyte01","Cycle 1 Day 2",7.03,"ug/mL",0,"15/06/2022 11:25",339203,"Dummy Treatment Arm A","Dummy Treatment Arm P","2021-07-27 12:30",173,90,"kg","cm",1.48,"Sponsor123",11101,"OBSERVATION","DAY 3","A1","MOST RECENT DOSE","YEARS"
"6","XX01","XX01-11101","Analyte01","SERUM","EVERY WEEK",1,73.08,73.08,144,144,3.78,"Analyte01","intravascular",35,52,"M","WHITE",1.5,"Hours","mg",0,"Analyte01","Cycle 1 Day 4",3.78,"ug/mL",0,"15/06/2022 11:25",339203,"Dummy Treatment Arm A","Dummy Treatment Arm P","2021-07-27 12:30",173,90,"kg","cm",1.51,"Sponsor123",11101,"OBSERVATION","DAY 1","A1","MOST RECENT DOSE","YEARS"
