"Dataset","Order","Variable","Label","Type","Role","Core","company_specific","is.core","Length","Controlled_Terms","is.used","Values","is.mapped","mapping_tooltip","mapping_section","mapping_alternatives"
"ADPC",1,"STUDYID","Study Identifier","text","Identifier","Req",FALSE,TRUE,8,"",TRUE,"",TRUE,"Character column to identify the study","Group Identifiers",""
"ADPC",2,"USUBJID","Unique Subject Identifier","text","Identifier","Req",FALSE,TRUE,50,"",TRUE,"",TRUE,"Character column to identify a subject across studies","Group Identifiers",""
"ADPC",2.5,"SUBJID","Subject Identifier for the Study","text","Identifier","Perm",FALSE,TRUE,50,"",TRUE,"",FALSE,"","",""
"ADPC",2.54,"SITEID","Study Site Identifier","text","Identifier","Perm",FALSE,TRUE,20,"",TRUE,"",FALSE,"","",""
"ADPC",3,"PCGRPID","Group ID","text","Identifier","Perm",FALSE,FALSE,40,"",FALSE,"",FALSE,"","",""
"ADPC",4,"PCREFID","Reference ID","text","Identifier","Perm",FALSE,FALSE,40,"",FALSE,"",FALSE,"","",""
"ADPC",5,"PCSEQ","Sequence Number","integer","Identifier","Perm",FALSE,FALSE,12,"",FALSE,"",FALSE,"","",""
"ADPC",6,"PCSPID","Sponsor-Defined Identifier","text","Identifier","Perm",FALSE,FALSE,200,"",FALSE,"",FALSE,"","",""
"ADPC",9,"AGE","Age","integer","Topic","Req",FALSE,TRUE,12,"",TRUE,"",FALSE,"","",""
"ADPC",28,"ARRLT","Actual Rel. Time from Ref. Dose","integer","Topic","Req",FALSE,FALSE,12,"",FALSE,"",TRUE,"Numeric column indicating actual time of sample collection since last dose","Time Variables",""
"ADPC",11,"DOSEA","Actual Treatment Dose","float","Topic","Req",FALSE,FALSE,12,"",FALSE,"",TRUE,"Numeric column for actual dose amount given in the last administration","Dose Variables","DOSEP"
"ADPC",12,"DOSEAU","Actual Treatment Dose Units","text","Topic","Req",FALSE,FALSE,40,"C71620",FALSE,"mg, g, ug, ng, pg, mol, mmol, umol, nmol, pmol, mg/kg, g/kg, ug/kg, ng/kg, pg/kg, mol/kg, mmol/kg, umol/kg, nmol/kg, pmol/kg",FALSE,"Character column for unit of DOSEA (C71620), Instead of a column an unique value can be mapped for all records (i.e, ""mg/L"")","Dose Variables",""
"ADPC",13,"DOSEP","Planned Treatment Dose","float","Topic","Req",FALSE,FALSE,12,"",FALSE,"",FALSE,"","",""
"ADPC",14,"DOSEPU","Planned Treatment Dose Units","text","Topic","Req",FALSE,FALSE,40,"",FALSE,"",FALSE,"","",""
"ADPC",28,"NRRLT","Nominal Rel. Time from Ref. Dose","float","Topic","Req",FALSE,FALSE,12,"",FALSE,"",TRUE,"Numeric column indicating planned time of sample collection since last dose","Time Variables",""
"ADPC",16,"PARAM","Parameter","text","Topic","Req",FALSE,FALSE,100,"",FALSE,"",TRUE,"Character column for sample's analyte measured","Sample Variables",""
"ADPC",17,"PARAMCD","Parameter Code","text","Topic","Req",FALSE,FALSE,8,"",FALSE,"",FALSE,"","",""
"ADPC",18,"RACE","Race","text","Topic","Req",FALSE,FALSE,200,"C74457",FALSE,"",FALSE,"","",""
"ADPC",19,"SEX","Sex","text","Topic","Req",FALSE,FALSE,2,"C66731",FALSE,"",FALSE,"","",""
"ADPC",20,"AAGBL","Alpha-1 Acid Glycoprotein at Baseline","float","Topic","Perm",TRUE,FALSE,12,"C66742",FALSE,"",FALSE,"","",""
"ADPC",21,"AAGE","Analysis Age","integer","Topic","Perm",FALSE,TRUE,12,"",TRUE,"",FALSE,"","",""
"ADPC",22,"ACYCLE","Analysis Cycle","integer","Topic","Perm",FALSE,FALSE,12,"",FALSE,"",FALSE,"","",""
"ADPC",23,"ACYCLEC","Analysis Cycle (C)","text","Topic","Perm",FALSE,FALSE,40,"",FALSE,"",FALSE,"","",""
"ADPC",24,"ADA","Treatment Emergent ADA status","text","Topic","Perm",TRUE,FALSE,40,"",FALSE,"",FALSE,"","",""
"ADPC",25,"AEFRLT","Act. Rel. End Time from First Dose","float","Topic","Perm",FALSE,FALSE,12,"",FALSE,"",FALSE,"","",""
"ADPC",26,"AERRLT","Actual Rel. End Time from Ref. Dose","float","Topic","Perm",FALSE,FALSE,12,"",FALSE,"",FALSE,"","",""
"ADPC",27,"AERRLT","Actual Rel. End Time from Ref. Dose","float","Topic","Perm",FALSE,FALSE,12,"",FALSE,"",FALSE,"","",""
"ADPC",28,"AFRLT","Act. Rel. Time from Analyte First Dose","float","Topic","Perm",FALSE,FALSE,12,"",FALSE,"",TRUE,"Numeric column indicating actual time of sample collection since first dose","Time Variables",""
"ADPC",29,"ALKPHBL","Alkaline Phosphatase at Baseline","float","Topic","Perm",TRUE,FALSE,12,"C66742",FALSE,"",FALSE,"","",""
"ADPC",30,"ASEQ","Analysis Sequence Number","integer","Topic","Perm",FALSE,TRUE,12,"",TRUE,"",FALSE,"","",""
"ADPC",31,"BMIBL","BMI at Baseline","float","Topic","Perm",TRUE,FALSE,12,"",FALSE,"",FALSE,"","",""
"ADPC",32,"BSABL","BSA at Baseline","float","Topic","Perm",TRUE,FALSE,12,"",FALSE,"",FALSE,"","",""
"ADPC",33,"BUNBL","Blood Urea Nitrogen at Baseline","float","Topic","Perm",TRUE,FALSE,12,"",FALSE,"",FALSE,"","",""
"ADPC",34,"CALCBL","Calcium at Baseline","float","Topic","Perm",TRUE,FALSE,12,"",FALSE,"",FALSE,"","",""
"ADPC",35,"CLBL","Chloride at Baseline","float","Topic","Perm",TRUE,FALSE,12,"",FALSE,"",FALSE,"","",""
"ADPC",36,"CRCLBL","CrCL at Baseline","float","Topic","Perm",TRUE,FALSE,12,"",FALSE,"",FALSE,"","",""
"ADPC",37,"DBPBL","Diastolic BP at Baseline","float","Topic","Perm",TRUE,FALSE,12,"",FALSE,"",FALSE,"","",""
"ADPC",38,"DOSEDURU","Duration of Treatment Dose Units","text","Topic","Perm",FALSE,FALSE,40,"",FALSE,"",FALSE,"","",""
"ADPC",39,"EOSBL","Eosinophils at Baseline","float","Topic","Perm",TRUE,FALSE,12,"",FALSE,"",FALSE,"","",""
"ADPC",40,"ETHNIC","Ethnicity","text","Topic","Perm",FALSE,TRUE,200,"",TRUE,"",FALSE,"","",""
"ADPC",41,"FRMUL","Treatment Formulation","text","Topic","Perm",TRUE,FALSE,20,"",FALSE,"",FALSE,"","",""
"ADPC",42,"GGTBL","GGT at Baseline","float","Topic","Perm",TRUE,FALSE,12,"",FALSE,"",FALSE,"","",""
"ADPC",43,"GLUCBL","Glucose at Baseline","integer","Topic","Perm",TRUE,FALSE,12,"",FALSE,"",FALSE,"","",""
"ADPC",44,"HCTBL","Hematocrit at Baseline","float","Topic","Perm",TRUE,FALSE,12,"",FALSE,"",FALSE,"","",""
"ADPC",45,"HGBBL","Hemoglobin at Baseline","float","Topic","Perm",TRUE,FALSE,12,"",FALSE,"",FALSE,"","",""
"ADPC",46,"HRBLU","Heart Rate at Baseline (Unit)","text","Topic","Perm",TRUE,FALSE,40,"",FALSE,"",FALSE,"","",""
"ADPC",47,"HTBL","Height at Baseline","float","Topic","Perm",TRUE,FALSE,12,"",FALSE,"",FALSE,"","",""
"ADPC",48,"IBWBL","Ideal Body Weight (IBW) at Baseline","float","Topic","Perm",TRUE,FALSE,12,"",FALSE,"",FALSE,"","",""
"ADPC",49,"KBL","Potassium at Baseline","float","Topic","Perm",TRUE,FALSE,12,"",FALSE,"",FALSE,"","",""
"ADPC",50,"LBMBL","Lean Body Mass (LBM) at Baseline","float","Topic","Perm",TRUE,FALSE,12,"",FALSE,"",FALSE,"","",""
"ADPC",51,"LYMBL","Lymphocytes at Baseline","float","Topic","Perm",TRUE,FALSE,12,"",FALSE,"",FALSE,"","",""
"ADPC",52,"MERRLT","Modified Rel. End Time from Ref. Dose","float","Topic","Perm",FALSE,FALSE,12,"",FALSE,"",FALSE,"","",""
"ADPC",53,"MERRLT","Modified Rel. End Time from Ref. Dose","float","Topic","Perm",FALSE,FALSE,12,"",FALSE,"",FALSE,"","",""
"ADPC",54,"MRRLT","Modified Rel. Time from Ref. Dose","float","Topic","Perm",FALSE,FALSE,12,"",FALSE,"",FALSE,"","",""
"ADPC",55,"NABL","Sodium at Baseline","float","Topic","Perm",TRUE,FALSE,12,"",FALSE,"",FALSE,"","",""
"ADPC",56,"NCAXFN","PK NCA Exclusion Flag (N)","integer","Topic","Perm",FALSE,FALSE,12,"",FALSE,"",FALSE,"","",""
"ADPC",57,"NCAwXRS","Reason w for PK NCA Exclusion","text","Topic","Perm",FALSE,FALSE,200,"",FALSE,"",FALSE,"","",""
"ADPC",58,"NCAwXRSN","Reason for PK NCA Exclusion of w (N)","integer","Topic","Perm",FALSE,FALSE,12,"",FALSE,"",FALSE,"","",""
"ADPC",59,"NEFRLT","Nom. Rel. End Time from First Dose","float","Topic","Perm",FALSE,FALSE,12,"",FALSE,"",FALSE,"","",""
"ADPC",60,"NERRLT","Nominal Rel. End Time from Ref. Dose","float","Topic","Perm",FALSE,FALSE,12,"",FALSE,"",FALSE,"","",""
"ADPC",61,"NERRLT","Nominal Rel. End Time from Ref. Dose","float","Topic","Perm",FALSE,FALSE,12,"",FALSE,"",FALSE,"","",""
"ADPC",62,"NEUBL","Neutrophils at Baseline","float","Topic","Perm",TRUE,FALSE,12,"",FALSE,"",FALSE,"","",""
"ADPC",63,"NFRLT","Nom. Rel. Time from Analyte First Dose","float","Topic","Perm",FALSE,FALSE,12,"",FALSE,"",TRUE,"Numeric column indicating time of sample collection since first dose","Time Variables",""
"ADPC",64,"PCAINTP","Assay Interpretation","text","Topic","Perm",FALSE,FALSE,200,"",FALSE,"",FALSE,"","",""
"ADPC",65,"PCCAT","Test Category","text","Topic","Perm",FALSE,FALSE,100,"",FALSE,"",FALSE,"","",""
"ADPC",66,"PCFAST","Fasting Status","text","Topic","Perm",FALSE,FALSE,2,"",FALSE,"",FALSE,"","",""
"ADPC",67,"PCMETHOD","Method of Test or Examination","text","Topic","Perm",FALSE,FALSE,100,"",FALSE,"",FALSE,"","",""
"ADPC",68,"PCREASND","Reason Test Not Done","text","Topic","Perm",FALSE,FALSE,200,"",FALSE,"",FALSE,"","",""
"ADPC",69,"PCSCAT","Test Subcategory","text","Topic","Perm",FALSE,FALSE,100,"",FALSE,"",FALSE,"","",""
"ADPC",70,"PCSMPLID","Alternate Sample Identifier","text","Topic","Perm",FALSE,FALSE,40,"",FALSE,"",FALSE,"","",""
"ADPC",71,"PCSPCCND","Specimen Condition","text","Topic","Perm",FALSE,FALSE,200,"",FALSE,"",FALSE,"","",""
"ADPC",72,"PCSPEC","Specimen Material Type","text","Topic","Perm",FALSE,FALSE,40,"C78734",FALSE,"PLASMA, SERUM, URINE, BLOOD, BONE, BILE, MUCUS, SALIVA, SKIN TISSUE, TISSUE, SPUTUM, SEMEN",TRUE,"Character column for sample's type of specimen or matrix (C78734). Instead of a column an unique value can be mapped for all records  (i.e, ""PLASMA"", ""SERUM"" or ""URINE"")","Sample Variables",""
"ADPC",73,"PCTEST","Pharmacokinetic Test Name","text","Topic","Perm",FALSE,FALSE,40,"",FALSE,"",FALSE,"","",""
"ADPC",74,"PCTESTCD","Pharmacokinetic Test Short Name","text","Topic","Perm",FALSE,FALSE,8,"",FALSE,"",FALSE,"","",""
"ADPC",75,"PHBL","Phosphate at Baseline","float","Topic","Perm",TRUE,FALSE,12,"",FALSE,"",FALSE,"","",""
"ADPC",76,"PKSUMXF","PK Summary Exclusion Flag","text","Topic","Perm",FALSE,FALSE,1,"",FALSE,"",FALSE,"","",""
"ADPC",77,"PKSUMXFN","PK Summary Exclusion Flag (N)","integer","Topic","Perm",FALSE,FALSE,12,"",FALSE,"",FALSE,"","",""
"ADPC",78,"PLATEBL","Platelet Count at Baseline","float","Topic","Perm",TRUE,FALSE,12,"",FALSE,"",FALSE,"","",""
"ADPC",79,"PRBL","PR Duration at Baseline","float","Topic","Perm",TRUE,FALSE,12,"",FALSE,"",FALSE,"","",""
"ADPC",80,"PULSBL","Pulse rate at Baseline","float","Topic","Perm",TRUE,FALSE,12,"",FALSE,"",FALSE,"","",""
"ADPC",81,"QRSBL","QRS Duration at Baseline","float","Topic","Perm",TRUE,FALSE,12,"",FALSE,"",FALSE,"","",""
"ADPC",82,"QTBL","QT duration at Baseline","float","Topic","Perm",TRUE,FALSE,12,"",FALSE,"",FALSE,"","",""
"ADPC",83,"QTCBBL","QTcB at Baseline","float","Topic","Perm",TRUE,FALSE,12,"",FALSE,"",FALSE,"","",""
"ADPC",84,"QTCFBLU","QTcF at Baseline (Unit)","text","Topic","Perm",TRUE,FALSE,40,"",FALSE,"",FALSE,"","",""
"ADPC",85,"RBCBL","RBC Count at Baseline","float","Topic","Perm",TRUE,FALSE,12,"",FALSE,"",FALSE,"","",""
"ADPC",86,"REGIME","Regimen of Medication","text","Topic","Perm",TRUE,FALSE,40,"",FALSE,"",FALSE,"","",""
"ADPC",87,"REGION1","Geographic Region 1","text","Topic","Perm",TRUE,TRUE,200,"",TRUE,"",FALSE,"","",""
"ADPC",88,"ROUTE","Route of Administration","text","Topic","Perm",FALSE,FALSE,40,"C66729",FALSE,"extravascular, intravascular, AURICULAR (OTIC), BUCCAL, CONJUNCTIVAL, CUTANEOUS, DENTAL, DIETARY, ELECTRO-OSMOSIS, ENDOCERVICAL, ENDOSINUSIAL, ENDOTRACHEAL, ENTERAL, EPIDURAL, EXTRA-AMNIOTIC, EXTRACORPOREAL, GASTROJEJUNAL, HEMODIALYSIS, IMMERSION, INFILTRATION, INTERSTITIAL, INTRA-ABDOMINAL, INTRA-AMNIOTIC, INTRA-ARTERIAL, INTRA-ARTICULAR, INTRABILIARY, INTRABRONCHIAL, INTRABURSAL, INTRACAMERAL, INTRACARDIAC, INTRACARTILAGINOUS, INTRACAUDAL, INTRACAVERNOUS, INTRACAVITARY, INTRACEREBRAL, INTRACISTERNAL, INTRACOCHLEAR, INTRACORNEAL, INTRACORONAL, DENTAL, INTRACORONARY, INTRACORPORUS CAVERNOSUM, INTRADERMAL, INTRADISCAL, INTRADUCTAL, INTRADUODENAL, INTRADURAL, INTRAEPIDERMAL, INTRAESOPHAGEAL, INTRAGASTRIC, INTRAGINGIVAL, INTRAHEPATIC, INTRAILEAL, INTRAJEJUNAL, INTRALESIONAL, INTRALUMINAL, INTRALYMPHATIC, INTRAMAMMARY, INTRAMANDIBULAR, INTRAMEDULLARY, INTRAMENINGEAL, INTRAMUSCULAR, INTRANODAL, INTRAOCULAR, INTRAOSSEOUS, INTRAOVARIAN, INTRAPALATAL, INTRAPARENCHYMAL, INTRAPERICARDIAL, INTRAPERITONEAL, INTRAPLEURAL, INTRAPROSTATIC, INTRAPULMONARY, INTRARUMINAL, INTRASINAL, INTRASPINAL, INTRASTOMAL, INTRASURGICAL SITE, INTRASYNOVIAL, INTRATENDINOUS, INTRATESTICULAR, INTRATHALAMIC, INTRATHECAL, INTRATHORACIC, INTRATUBULAR, INTRATUMOR, INTRATYMPANIC, INTRAUTERINE, INTRAVAGINAL, INTRAVASCULAR, INTRAVENOUS, INTRAVENOUS BOLUS, INTRAVENOUS DRIP, INTRAVENTRICULAR, INTRAVESICAL, INTRAVITREAL, IONTOPHORESIS, IRRIGATION, LARYNGEAL, MICRODIALYSIS, NASAL, NASODUODENAL, NASOJEJUNAL, NOT APPLICABLE, OCCLUSIVE DRESSING TECHNIQUE, OPHTHALMIC, ORAL, ORAL GAVAGE, OROGASTRIC, OROMUCOSAL, OROPHARYNGEAL, PARENTERAL, PERCUTANEOUS, PERIARTICULAR, PERIDURAL, PERINEURAL, PERIODONTAL, PERIVENOUS, PHARYNGEAL, RECTAL, RESPIRATORY (INHALATION), RETROBULBAR, SOFT TISSUE, SUBARACHNOID, SUBCONJUNCTIVAL, SUBCUTANEOUS, SUBDURAL, SUBLINGUAL, SUBMUCOSAL, SUBRETINAL, SUBTENON, SUPRACHOROIDAL, TOPICAL, TRANSDERMAL, TRANSMAMMARY, TRANSMUCOSAL, TRANSPLACENTAL, TRANSTRACHEAL, TRANSTYMPANIC, UNASSIGNED, UNKNOWN, URETERAL, URETHRAL, VAGINAL
",TRUE,"Character column for dose administration (C66729 or 'intravascular' / 'extravascular').Instead of a column an unique value can be mapped for all records  (i.e, ""intravascular"", ""extravascular"")","Dose Variables","EXROUTE"
"ADPC",89,"RRBL","RR Duration at Baseline","float","Topic","Perm",TRUE,FALSE,12,"",FALSE,"",FALSE,"","",""
"ADPC",90,"SBPBL","Systolic BP at Baseline","float","Topic","Perm",TRUE,FALSE,12,"",FALSE,"",FALSE,"","",""
"ADPC",91,"SGOTBL","SGOT-AST at Baseline","float","Topic","Perm",TRUE,FALSE,12,"",FALSE,"",FALSE,"","",""
"ADPC",92,"SGPTBL","SGPT-ALT at Baseline","float","Topic","Perm",TRUE,FALSE,12,"",FALSE,"",FALSE,"","",""
"ADPC",93,"TBILIBL","Bilirubin at Baseline (BLOOD)","float","Topic","Perm",TRUE,FALSE,12,"",FALSE,"",FALSE,"","",""
"ADPC",94,"TEMPBL","Temperature at Baseline","float","Topic","Perm",TRUE,FALSE,12,"",FALSE,"",FALSE,"","",""
"ADPC",95,"TOBBL","Smoking Status at Baseline","float","Topic","Perm",TRUE,FALSE,12,"",FALSE,"",FALSE,"","",""
"ADPC",96,"TPROTBL","Total Protein at Baseline (BLOOD)","float","Topic","Perm",TRUE,FALSE,12,"",FALSE,"",FALSE,"","",""
"ADPC",97,"TRTRINT","Planned Treatment Interval","float","Topic","Perm",FALSE,FALSE,12,"",FALSE,"",TRUE,"Numeric column forplanned time between 2 consecutive doses in multiple dose studies (optional, sometimes referred as TAU). Must be in RRTLU units","Supplemental Variables","TAU"
"ADPC",98,"TRTRINTU","Planned Treatment Interval Units","text","Topic","Perm",FALSE,FALSE,40,"",FALSE,"",FALSE,"","",""
"ADPC",99,"WTBL","Weight at Baseline","float","Topic","Perm",TRUE,FALSE,12,"",FALSE,"",FALSE,"","",""
"ADPC",100,"ADOSEDUR","Actual Duration of Treatment Dose","float","Topic","Cond",FALSE,FALSE,12,"",FALSE,"",TRUE,"Numeric column for dose administration duration. Only required when the data contains dose infusions. If not mapped is assumed as 0.","Supplemental Variables",""
"ADPC",101,"DOSEFRQ","Dose Frequency","text","Topic","Cond",FALSE,FALSE,40,"",FALSE,"",FALSE,"","",""
"ADPC",102,"DOSPCTDF","Percent Diff. Nominal vs. Actual Dose","float","Topic","Cond",FALSE,FALSE,12,"",FALSE,"",FALSE,"","",""
"ADPC",104,"NDOSEDUR","Nominal duration of Treatment Dose","float","Topic","Cond",FALSE,FALSE,12,"",FALSE,"",FALSE,"","",""
"ADPC",105,"PCLLOQ","Lower Limit of Quantitation","float","Topic","Cond",FALSE,FALSE,12,"",FALSE,"",FALSE,"","",""
"ADPC",106,"SPWEIGHT","Specimen Weight Value","float","Topic","Cond",FALSE,FALSE,12,"",FALSE,"",FALSE,"","",""
"ADPC",107,"SPWEIGHU","Specimen Weight Value Unit","text","Topic","Cond",FALSE,FALSE,40,"",FALSE,"",FALSE,"","",""
"ADPC",108,"TRTxxA","Actual Treatment for Period xx","text","Topic","Cond",FALSE,FALSE,200,"",FALSE,"",FALSE,"","",""
"ADPC",109,"TRTxxP","Planned Treatment for Period xx","text","Topic","Cond",FALSE,FALSE,200,"",FALSE,"",FALSE,"","",""
"ADPC",110,"AGEU","Age Units","text","Synonym Qualifier","Req",FALSE,TRUE,6,"",TRUE,"",FALSE,"","",""
"ADPC",111,"RRLTU","Rel. Time from Ref. Dose Unit","text","Synonym Qualifier","Req",FALSE,FALSE,8,"",FALSE,"hr, day, week, month, year, sec, min",TRUE,"Character column for unit of DOSEA (C71620), Instead of a column an unique value can be mapped for all records (i.e, ""mg/L"")","Unit Variables",""
"ADPC",112,"AAGBLU","AAG at baseline (Unit)","text","Synonym Qualifier","Perm",TRUE,FALSE,40,"",FALSE,"",FALSE,"","",""
"ADPC",113,"AAGEU","Analysis Age Unit","text","Synonym Qualifier","Perm",FALSE,TRUE,6,"",TRUE,"",FALSE,"","",""
"ADPC",114,"ALBUBL","Albumin at Baseline","float","Synonym Qualifier","Perm",TRUE,FALSE,12,"",FALSE,"",FALSE,"","",""
"ADPC",115,"ALBUBLU","Albumin at baseline (Unit)","text","Synonym Qualifier","Perm",TRUE,FALSE,40,"",FALSE,"",FALSE,"","",""
"ADPC",116,"ALCOBL","Alcohol at Baseline","float","Synonym Qualifier","Perm",TRUE,FALSE,12,"",FALSE,"",FALSE,"","",""
"ADPC",117,"ALKPHBLU","Alkaline Phosphatase at Baseline (Unit)","text","Synonym Qualifier","Perm",TRUE,FALSE,40,"",FALSE,"",FALSE,"","",""
"ADPC",118,"BMIBLU","BMI at Baseline (Unit)","text","Synonym Qualifier","Perm",TRUE,FALSE,40,"",FALSE,"",FALSE,"","",""
"ADPC",119,"BSABLU","BSA at Baseline (Unit)","text","Synonym Qualifier","Perm",TRUE,FALSE,40,"",FALSE,"",FALSE,"","",""
"ADPC",120,"BUNBLU","Blood Urea Nitrogen at baseline (Unit)","text","Synonym Qualifier","Perm",TRUE,FALSE,40,"",FALSE,"",FALSE,"","",""
"ADPC",121,"CALCBLU","Calcium at baseline (Unit)","text","Synonym Qualifier","Perm",TRUE,FALSE,40,"",FALSE,"",FALSE,"","",""
"ADPC",122,"CLBLU","Chloride at baseline (Unit)","text","Synonym Qualifier","Perm",TRUE,FALSE,40,"",FALSE,"",FALSE,"","",""
"ADPC",123,"COUNTRY","Country","text","Synonym Qualifier","Perm",FALSE,TRUE,3,"",TRUE,"",FALSE,"","",""
"ADPC",124,"CRCLBLU","CrCL at baseline (BLOOD)","text","Synonym Qualifier","Perm",TRUE,FALSE,40,"",FALSE,"",FALSE,"","",""
"ADPC",125,"CREATBL","Creatinine at Baseline (BLOOD)","float","Synonym Qualifier","Perm",TRUE,FALSE,12,"",FALSE,"",FALSE,"","",""
"ADPC",126,"CREATBLU","Creat at baseline (BLOOD)","text","Synonym Qualifier","Perm",TRUE,FALSE,40,"",FALSE,"",FALSE,"","",""
"ADPC",127,"DBPBLU","Diastolic BP at Baseline (Unit)","text","Synonym Qualifier","Perm",TRUE,FALSE,40,"",FALSE,"",FALSE,"","",""
"ADPC",128,"EOSBLU","Eosinophils at baseline (Unit)","text","Synonym Qualifier","Perm",TRUE,FALSE,40,"",FALSE,"",FALSE,"","",""
"ADPC",129,"FRLTU","Rel. Time from First Dose Unit","text","Synonym Qualifier","Perm",FALSE,FALSE,8,"",FALSE,"",FALSE,"","",""
"ADPC",130,"GGTBLU","GGT at Baseline (Unit)","text","Synonym Qualifier","Perm",TRUE,FALSE,40,"",FALSE,"",FALSE,"","",""
"ADPC",131,"GLUBLU","Glucose at Baseline (Unit)","text","Synonym Qualifier","Perm",TRUE,FALSE,40,"",FALSE,"",FALSE,"","",""
"ADPC",132,"HCTBLU","HCT at Baseline (Unit)","text","Synonym Qualifier","Perm",TRUE,FALSE,40,"",FALSE,"",FALSE,"","",""
"ADPC",133,"HGBBLU","HGB at Baseline (Unit)","text","Synonym Qualifier","Perm",TRUE,FALSE,40,"",FALSE,"",FALSE,"","",""
"ADPC",134,"HRBL","Heart Rate at Baseline","text","Synonym Qualifier","Perm",TRUE,FALSE,8,"",FALSE,"",FALSE,"","",""
"ADPC",135,"HTBLU","Height at Baseline (Unit)","text","Synonym Qualifier","Perm",TRUE,FALSE,40,"",FALSE,"",FALSE,"","",""
"ADPC",136,"IBWBLU","IBW at Baseline (Unit)","text","Synonym Qualifier","Perm",TRUE,FALSE,40,"",FALSE,"",FALSE,"","",""
"ADPC",137,"KBLU","Potassium at Baseline (Unit)","text","Synonym Qualifier","Perm",TRUE,FALSE,40,"",FALSE,"",FALSE,"","",""
"ADPC",138,"LBWBLU","LBM at Baseline (Unit)","text","Synonym Qualifier","Perm",TRUE,FALSE,40,"",FALSE,"",FALSE,"","",""
"ADPC",139,"LYMBLU","Lymphocytes at Baseline (Unit)","text","Synonym Qualifier","Perm",TRUE,FALSE,40,"",FALSE,"",FALSE,"","",""
"ADPC",140,"MONOBL","Monocytes at Baseline","float","Synonym Qualifier","Perm",TRUE,FALSE,12,"",FALSE,"",FALSE,"","",""
"ADPC",141,"MONOBLU","Monocytes at Baseline (Unit)","text","Synonym Qualifier","Perm",TRUE,FALSE,40,"",FALSE,"",FALSE,"","",""
"ADPC",142,"NABLU","Sodium at Baseline (Unit)","text","Synonym Qualifier","Perm",TRUE,FALSE,40,"",FALSE,"",FALSE,"","",""
"ADPC",143,"NEUBLU","Neutrophils at Baseline (Unit)","text","Synonym Qualifier","Perm",TRUE,FALSE,40,"",FALSE,"",FALSE,"","",""
"ADPC",144,"PHBLU","Phosphate at baseline (Unit)","text","Synonym Qualifier","Perm",TRUE,FALSE,40,"",FALSE,"",FALSE,"","",""
"ADPC",145,"PLATEBLU","Platelet Count at baseline (Unit)","text","Synonym Qualifier","Perm",TRUE,FALSE,40,"",FALSE,"",FALSE,"","",""
"ADPC",146,"PRBLU","PR Duration at Baseline (Unit)","text","Synonym Qualifier","Perm",TRUE,FALSE,40,"",FALSE,"",FALSE,"","",""
"ADPC",147,"PULSBLU","Pulse rate at Baseline (Unit)","text","Synonym Qualifier","Perm",TRUE,FALSE,40,"",FALSE,"",FALSE,"","",""
"ADPC",148,"QRSBLU","QRS Duration at Baseline (Unit)","text","Synonym Qualifier","Perm",TRUE,FALSE,40,"",FALSE,"",FALSE,"","",""
"ADPC",149,"QTBLU","QT Duration at Baseline (Unit)","text","Synonym Qualifier","Perm",TRUE,FALSE,40,"",FALSE,"",FALSE,"","",""
"ADPC",150,"QTCBBLU","QTcB at Baseline (Unit)","text","Synonym Qualifier","Perm",TRUE,FALSE,40,"",FALSE,"",FALSE,"","",""
"ADPC",151,"QTCFBL","QTcF at Baseline","float","Synonym Qualifier","Perm",TRUE,FALSE,12,"",FALSE,"",FALSE,"","",""
"ADPC",152,"RBCBLU","RBC Count at Baseline (Unit)","text","Synonym Qualifier","Perm",TRUE,FALSE,40,"",FALSE,"",FALSE,"","",""
"ADPC",153,"RRBLU","RR Duration at Baseline (Unit)","text","Synonym Qualifier","Perm",TRUE,FALSE,40,"",FALSE,"",FALSE,"","",""
"ADPC",154,"SBPBLU","Systolic BP at Baseline (Unit)","text","Synonym Qualifier","Perm",TRUE,FALSE,40,"",FALSE,"",FALSE,"","",""
"ADPC",155,"SGOTBLU","SGOT-AST at Baseline (Unit)","text","Synonym Qualifier","Perm",TRUE,FALSE,40,"",FALSE,"",FALSE,"","",""
"ADPC",156,"SGPTBLU","SGPT-ALT at Baseline (Unit)","text","Synonym Qualifier","Perm",TRUE,FALSE,40,"",FALSE,"",FALSE,"","",""
"ADPC",157,"TBILIBLU","Bilirubin at Baseline (Unit)","text","Synonym Qualifier","Perm",TRUE,FALSE,40,"",FALSE,"",FALSE,"","",""
"ADPC",158,"TOBBLU","Smoking Status at Baseline (Unit)","text","Synonym Qualifier","Perm",TRUE,FALSE,40,"",FALSE,"",FALSE,"","",""
"ADPC",159,"TPROTBLU","Total Protein at Baseline (Unit)","text","Synonym Qualifier","Perm",TRUE,FALSE,40,"",FALSE,"",FALSE,"","",""
"ADPC",160,"WBCBL","WBC Count at Baseline","float","Synonym Qualifier","Perm",TRUE,FALSE,12,"",FALSE,"",FALSE,"","",""
"ADPC",161,"WBCBLU","WBC Count at baseline (Unit)","text","Synonym Qualifier","Perm",TRUE,FALSE,40,"",FALSE,"",FALSE,"","",""
"ADPC",162,"WTBLU","Weight at Baseline (Unit)","text","Synonym Qualifier","Perm",TRUE,FALSE,40,"",FALSE,"",FALSE,"","",""
"ADPC",163,"VOLUME","Volume Value","float","Synonym Qualifier","Cond",FALSE,FALSE,12,"",FALSE,"",TRUE,"Numeric column for collected sample's volume. Only required for excretion studies.","Supplemental Variables",""
"ADPC",164,"VOLUMEU","Volume Value Unit","text","Synonym Qualifier","Cond",FALSE,FALSE,40,"",FALSE,"",TRUE,"Character column for unit of VOLUME (C71620), Instead of a column an unique value can be mapped for all records (i.e, ""mg/L""). Only relevant when VOLUME is mapped.","Supplemental Variables",""
"ADPC",166,"AVISIT","Analysis Visit","text","Grouping Qualifier","Req",FALSE,FALSE,200,"",FALSE,"",TRUE,"Character column to indicate the analysis visit description. It may use for it visit names as observed, time window names, conceptual descriptions or any producer defined value. Merely used for filtering and arranging purposes.","Group Identifiers","DOSNO, DOSNOA, DOSNOP, NCA_PROFILE"
"ADPC",168,"AVISITN","Analysis Visit (N)","integer","Grouping Qualifier","Req",FALSE,FALSE,12,"",FALSE,"",FALSE,"","",""
"ADPC",169,"TRT01P","Planned Treatment for Period 01","text","Grouping Qualifier","Req",TRUE,FALSE,200,"",FALSE,"",FALSE,"","",""
"ADPC",170,"VISIT","Visit Name","text","Grouping Qualifier","Req",FALSE,FALSE,200,"",FALSE,"",FALSE,"","",""
"ADPC",171,"VISITDY","Planned Study Day of Visit","integer","Grouping Qualifier","Req",FALSE,FALSE,12,"1",FALSE,"",FALSE,"","",""
"ADPC",172,"VISITNUM","Visit Number","integer","Grouping Qualifier","Req",FALSE,FALSE,12,"",FALSE,"",FALSE,"","",""
"ADPC",173,"AGEGR1","Pooled Age Group 1","text","Grouping Qualifier","Perm",TRUE,TRUE,10,"",TRUE,"",FALSE,"","",""
"ADPC",174,"AGEGR2","Pooled Age Group 2","text","Grouping Qualifier","Perm",TRUE,TRUE,10,"",TRUE,"",FALSE,"","",""
"ADPC",175,"AGEGR3","Pooled Age Group 3","text","Grouping Qualifier","Perm",TRUE,TRUE,10,"",TRUE,"",FALSE,"","",""
"ADPC",176,"COHORT","Subject Cohort","text","Grouping Qualifier","Perm",FALSE,FALSE,200,"",FALSE,"",FALSE,"","",""
"ADPC",177,"COHORTN","Subject Cohort (N)","integer","Grouping Qualifier","Perm",FALSE,FALSE,12,"",FALSE,"",FALSE,"","",""
"ADPC",178,"PARCAT1","Parameter Category 1","text","Grouping Qualifier","Perm",FALSE,FALSE,40,"",FALSE,"",FALSE,"","",""
"ADPC",179,"STRATwD","Description of Stratification Factor w","text","Grouping Qualifier","Perm",FALSE,TRUE,200,"",TRUE,"",FALSE,"","",""
"ADPC",180,"STRATwR","Strat Factor w Value Used for Rand","text","Grouping Qualifier","Perm",FALSE,TRUE,200,"",TRUE,"",FALSE,"","",""
"ADPC",181,"STRATwV","Verified Value of Stratum w","text","Grouping Qualifier","Perm",TRUE,FALSE,200,"",FALSE,"",FALSE,"","",""
"ADPC",182,"APERIOD","Period","integer","Grouping Qualifier","Cond",FALSE,FALSE,12,"",FALSE,"",FALSE,"","",""
"ADPC",183,"APERIODC","Period (C)","text","Grouping Qualifier","Cond",FALSE,FALSE,200,"",FALSE,"",FALSE,"","",""
"ADPC",184,"TRT01A","Actual Treatment for Period 01","text","Grouping Qualifier","Cond",TRUE,FALSE,200,"",FALSE,"",FALSE,"","",""
"ADPC",185,"TRTSEQA","Actual Sequence of Treatments","text","Grouping Qualifier","Cond",FALSE,FALSE,200,"",FALSE,"",FALSE,"","",""
"ADPC",186,"TRTSEQP","Planned Sequence of Treatments","text","Grouping Qualifier","Cond",FALSE,FALSE,200,"",FALSE,"",FALSE,"","",""
"ADPC",188,"DOSNOP","Planned Dose Number","integer","Record Qualifier","Perm",TRUE,FALSE,12,"",FALSE,"",FALSE,"","",""
"ADPC",189,"FEDSTATE","Fasted / Fed Status","text","Record Qualifier","Perm",TRUE,FALSE,10,"",FALSE,"",FALSE,"","",""
"ADPC",190,"NCAXFL","PK NCA Exclusion Flag","text","Record Qualifier","Perm",FALSE,FALSE,1,"",FALSE,"",FALSE,"","",""
"ADPC",191,"PCSTAT","Completion Status","text","Record Qualifier","Perm",FALSE,FALSE,8,"C66789",FALSE,"",FALSE,"","",""
"ADPC",192,"ABLFL","Baseline Record Flag","text","Record Qualifier","Cond",FALSE,FALSE,1,"",FALSE,"",FALSE,"","",""
"ADPC",193,"ANL01FL","Analysis Flag 01","text","Record Qualifier","Cond",TRUE,FALSE,1,"",FALSE,"",FALSE,"","",""
"ADPC",194,"ANL02FL","Analysis Flag 02","text","Record Qualifier","Cond",TRUE,FALSE,1,"",FALSE,"",FALSE,"","",""
"ADPC",195,"CRIT1FL","Criterion 1 Evaluation Result Flag","text","Record Qualifier","Cond",TRUE,FALSE,1,"",FALSE,"",FALSE,"","",""
"ADPC",196,"CRIT1FL","Criterion 1 Evaluation Result Flag","text","Record Qualifier","Cond",TRUE,FALSE,1,"",FALSE,"",FALSE,"","",""
"ADPC",197,"ITTFL","Intent-To-Treat Population Flag","text","Record Qualifier","Cond",FALSE,FALSE,1,"",FALSE,"",FALSE,"","",""
"ADPC",198,"METABFL","Metabolite Flag","text","Record Qualifier","Cond",FALSE,FALSE,1,"",FALSE,"N, Y",FALSE,"Character column for Metabolite Flag","Supplemental Variables","Character column (""Y"", ""N"") indicating if PARAM is a metabolite of the parent drug provided. Only required when the data contains multi-analyte assays. If not mapped, is assumed to be ""N""."
"ADPC",199,"PPROTFL","Per-Protocol Population Flag","text","Record Qualifier","Cond",FALSE,FALSE,1,"L11230",FALSE,"",FALSE,"","",""
"ADPC",200,"SAFFL","Safety Population Flag","text","Record Qualifier","Cond",FALSE,FALSE,1,"L11229",FALSE,"",FALSE,"","",""
"ADPC",201,"SPARSFL","Sparse Flag","text","Record Qualifier","Cond",FALSE,FALSE,1,"",FALSE,"",FALSE,"","",""
"ADPC",202,"AVAL","Analysis Value","float","Result Qualifier","Req",FALSE,FALSE,12,"",FALSE,"",TRUE,"Numeric column for analyte concentration","Sample Variables","PCSTRES, PCORRES"
"ADPC",203,"AVALCAT1","Analysis Value Category 1","text","Result Qualifier","Req",TRUE,FALSE,200,"",FALSE,"",FALSE,"","",""
"ADPC",204,"AVALU","Analysis Value Unit","text","Result Qualifier","Req",FALSE,FALSE,40,"",FALSE,"mg/L, ug/mL, ng/mL, pg/mL, mol/L, mmol/L, umol/L, nmol/L, pmol/L, mg/dL, ug/dL, ng/dL",TRUE,"Character column for unit of AVAL ()","Unit Variables","PCSTRESU, PCORRESU"
"ADPC",206,"CHG","Change from Baseline","float","Result Qualifier","Perm",FALSE,FALSE,12,"",FALSE,"",FALSE,"","",""
"ADPC",207,"CRIT1","Analysis Criterion 1","text","Result Qualifier","Perm",TRUE,FALSE,70,"",FALSE,"",FALSE,"","",""
"ADPC",208,"PCSTRESN","Numeric Result/Finding in Standard Units","float","Result Qualifier","Perm",FALSE,FALSE,12,"",FALSE,"",FALSE,"","",""
"ADPC",209,"ALLOQ","Analysis Lower Limit of Quantitation","float","Result Qualifier","Cond",FALSE,FALSE,12,"",FALSE,"",FALSE,"","",""
"ADPC",210,"ANL03FL","Analysis Flag 03","text","Record Qualifier","Cond",TRUE,FALSE,1,"",FALSE,"",FALSE,"","",""
"ADPC",211,"ANL04FL","Analysis Flag 04","text","Record Qualifier","Cond",TRUE,FALSE,1,"",FALSE,"",FALSE,"","",""
"ADPC",212,"ANL05FL","Analysis Flag 05","text","Record Qualifier","Cond",TRUE,FALSE,1,"",FALSE,"",FALSE,"","",""
"ADPC",213,"BASE","Baseline Value","float","Result Qualifier","Cond",FALSE,FALSE,12,"",FALSE,"",FALSE,"","",""
"ADPC",214,"BASETYPE","Baseline Type","text","Result Qualifier","Cond",FALSE,FALSE,200,"",FALSE,"",FALSE,"","",""
"ADPC",215,"PCSTRESC","Character Result/Finding in Std Format","text","Result Qualifier","Cond",FALSE,FALSE,200,"",FALSE,"",FALSE,"","",""
"ADPC",216,"PCSTRESU","Standard Units","text","Result Qualifier","Cond",FALSE,FALSE,40,"",FALSE,"",FALSE,"","",""
"ADPC",217,"PCDTC","Date/Time of Specimen Collection","dateTime","Timing","Req",FALSE,FALSE,25,"",FALSE,"",FALSE,"","",""
"ADPC",218,"PCRFTDT","Reference Date of Dose for Analyte","integer","Timing","Req",FALSE,FALSE,12,"",FALSE,"",FALSE,"","",""
"ADPC",219,"PCRFTDTM","Reference Datetime of Dose for Analyte","integer","Timing","Req",FALSE,FALSE,12,"",FALSE,"",FALSE,"","",""
"ADPC",220,"PCRFTTM","Reference Time of Dose for Analyte","integer","Timing","Req",FALSE,FALSE,12,"",FALSE,"",FALSE,"","",""
"ADPC",221,"PCTPT","Planned Time Point Name","text","Timing","Req",FALSE,FALSE,40,"",FALSE,"",FALSE,"","",""
"ADPC",222,"PCTPTNUM","Planned Time Point Number","integer","Timing","Req",FALSE,FALSE,12,"",FALSE,"",FALSE,"","",""
"ADPC",223,"AENDT","Analysis End Date","integer","Timing","Perm",FALSE,FALSE,12,"",FALSE,"",FALSE,"","",""
"ADPC",224,"AENDTM","Analysis End Date/Time","integer","Timing","Perm",FALSE,FALSE,12,"",FALSE,"",FALSE,"","",""
"ADPC",225,"AENTM","Analysis End Time","integer","Timing","Perm",FALSE,FALSE,12,"",FALSE,"",FALSE,"","",""
"ADPC",226,"ASTDT","Analysis Start Date","integer","Timing","Perm",FALSE,FALSE,12,"",FALSE,"",FALSE,"","",""
"ADPC",227,"ASTDTM","Analysis Start Date/Time","integer","Timing","Perm",FALSE,FALSE,12,"",FALSE,"",FALSE,"","",""
"ADPC",228,"ASTTM","Analysis Start Time","integer","Timing","Perm",FALSE,FALSE,12,"",FALSE,"",FALSE,"","",""
"ADPC",229,"ATPTREF","Analysis Timepoint Reference","text","Timing","Perm",FALSE,FALSE,200,"",FALSE,"",FALSE,"","",""
"ADPC",230,"DCUTDT","Date of Data Cut","integer","Timing","Perm",TRUE,FALSE,12,"C66742",FALSE,"",FALSE,"","",""
"ADPC",231,"EPOCH","Epoch","text","Timing","Perm",FALSE,FALSE,40,"C99079",FALSE,"",FALSE,"","",""
"ADPC",232,"FANLDT","First Date of Dose for Analyte","integer","Timing","Perm",FALSE,FALSE,12,"",FALSE,"",FALSE,"","",""
"ADPC",233,"FANLDTM","First Datetime of Dose for Analyte","integer","Timing","Perm",FALSE,FALSE,12,"",FALSE,"",FALSE,"","",""
"ADPC",234,"FANLDTMF","First Time of Dose Time Imputation Flag","text","Timing","Perm",FALSE,FALSE,1,"",FALSE,"",FALSE,"","",""
"ADPC",235,"FANLEDT","First End Date of Dose for Analyte","integer","Timing","Perm",FALSE,FALSE,12,"",FALSE,"",FALSE,"","",""
"ADPC",236,"FANLEDTF","First End of Dose Time Imputation Flag","text","Timing","Perm",FALSE,FALSE,1,"",FALSE,"",FALSE,"","",""
"ADPC",237,"FANLEDTM","First End Datetime of Dose for Analyte","integer","Timing","Perm",FALSE,FALSE,12,"",FALSE,"",FALSE,"","",""
"ADPC",238,"FANLETM","First End Time of Dose for Analyte","integer","Timing","Perm",FALSE,FALSE,12,"",FALSE,"",FALSE,"","",""
"ADPC",239,"FANLTM","First Time of Dose for Analyte","integer","Timing","Perm",FALSE,FALSE,12,"",FALSE,"",FALSE,"","",""
"ADPC",240,"PCDY","Actual Study Day of Specimen Collection","integer","Timing","Perm",FALSE,FALSE,12,"",FALSE,"",FALSE,"","",""
"ADPC",241,"TMPCTDF","Percent Diff. Nominal vs. Actual Time","float","Timing","Perm",FALSE,FALSE,12,"",FALSE,"",FALSE,"","",""
"ADPC",242,"ADT","Analysis Date","integer","Timing","Cond",FALSE,FALSE,12,"",FALSE,"",FALSE,"","",""
"ADPC",243,"ADTF","Analysis Date Imputation Flag","text","Timing","Cond",FALSE,FALSE,1,"",FALSE,"",FALSE,"","",""
"ADPC",244,"ADTM","Analysis Datetime","integer","Timing","Cond",FALSE,FALSE,12,"",FALSE,"",FALSE,"","",""
"ADPC",245,"ADY","Analysis Relative Day","integer","Timing","Cond",FALSE,FALSE,12,"",FALSE,"",FALSE,"","",""
"ADPC",246,"AENDTF","Analysis End Date Imputation Flag","text","Timing","Cond",FALSE,FALSE,1,"",FALSE,"",FALSE,"","",""
"ADPC",247,"AENTMF","Analysis End Time Imputation Flag","text","Timing","Cond",FALSE,FALSE,1,"",FALSE,"",FALSE,"","",""
"ADPC",248,"ASTDTF","Analysis Start Date Imputation Flag","text","Timing","Cond",FALSE,FALSE,1,"",FALSE,"",FALSE,"","",""
"ADPC",249,"ASTTMF","Analysis Start Time Imputation Flag","text","Timing","Cond",FALSE,FALSE,1,"",FALSE,"",FALSE,"","",""
"ADPC",250,"ATM","Analysis Time","integer","Timing","Cond",FALSE,FALSE,12,"",FALSE,"",FALSE,"","",""
"ADPC",251,"ATMF","Analysis Time Imputation Flag","text","Timing","Cond",FALSE,FALSE,1,"",FALSE,"",FALSE,"","",""
"ADPC",252,"ATPT","Analysis Timepoint","text","Timing","Cond",FALSE,FALSE,40,"",FALSE,"",FALSE,"","",""
"ADPC",254,"ATPTN","Analysis Timepoint (N)","integer","Timing","Cond",FALSE,FALSE,12,"",FALSE,"",FALSE,"","",""
"ADPC",256,"DTYPE","Derivation Type","text","Timing","Cond",FALSE,FALSE,200,"",FALSE,"",FALSE,"","",""
"ADPC",257,"PCRFEDT","Reference End Date of Dose for Analyte","integer","Timing","Cond",FALSE,FALSE,12,"",FALSE,"",FALSE,"","",""
"ADPC",258,"PCRFEDTM","Ref. End Datetime of Dose for Analyte","integer","Timing","Cond",FALSE,FALSE,12,"",FALSE,"",FALSE,"","",""
"ADPC",259,"PCRFETM","Reference End Time of Dose for Analyte","integer","Timing","Cond",FALSE,FALSE,12,"",FALSE,"",FALSE,"","",""
"ADPC",260,"TRTEDT","Date of Last Exposure to Treatment","integer","Timing","Cond",FALSE,FALSE,12,"C85492",FALSE,"",FALSE,"","",""
"ADPC",261,"TRTEDTM","Datetime of Last Exposure to Treatment","integer","Timing","Cond",FALSE,FALSE,12,"C78733",FALSE,"",FALSE,"","",""
"ADPC",262,"TRTSDT","Date of First Exposure to Treatment","integer","Timing","Cond",FALSE,FALSE,12,"C78734",FALSE,"",FALSE,"","",""
"ADPC",263,"TRTSDTM","Datetime of First Exposure to Treatment","integer","Timing","Cond",FALSE,FALSE,12,"",FALSE,"",FALSE,"","",""
"ADPP",1,"STUDYID","Study Identifier","text","Identifier","Req",FALSE,TRUE,8,"",TRUE,"",TRUE,"","",""
"ADPP",1.5,"DOMAIN","Domain Abbreviation","Char","Identifier","Req",FALSE,FALSE,2,"",TRUE,"",FALSE,"","",""
"ADPP",2,"USUBJID","Unique Subject Identifier","text","Identifier","Req",FALSE,TRUE,50,"",TRUE,"",TRUE,"","",""
"ADPP",2.5,"SUBJID","Subject Identifier for the Study","text","Identifier","Perm",FALSE,TRUE,50,"",TRUE,"",FALSE,"","",""
"ADPP",2.51,"PPSEQ","Sequence Number","integer","Identifier","Perm",FALSE,FALSE,12,"",FALSE,"",FALSE,"","",""
"ADPP",2.52,"PPGRPID","Group ID","text","Identifier","Perm",FALSE,FALSE,100,"",FALSE,"",FALSE,"","",""
"ADPP",2.53,"PPSPID","Sponsor-Defined Identifier","text","Identifier","Perm",FALSE,FALSE,200,"",FALSE,"",FALSE,"","",""
"ADPP",2.55,"PPTESTCD","Parameter Short Name","text","Topic","Perm",FALSE,FALSE,8,"C85839",FALSE,"",FALSE,"","",""
"ADPP",2.56,"PPTEST","Parameter Name","text","Synonym Qualifier","Perm",FALSE,FALSE,40,"",FALSE,"",FALSE,"","",""
"ADPP",2.57,"PPCAT","Parameter Category","text","Grouping Qualifier","Perm",FALSE,FALSE,100,"",FALSE,"",FALSE,"","",""
"ADPP",2.58,"PPSCAT","Parameter Subcategory","text","Grouping Qualifier","Perm",FALSE,FALSE,100,"",FALSE,"",FALSE,"","",""
"ADPP",2.59,"PPORRES","Result or Finding in Original Units","Char","Result Qualifier","Exp",FALSE,TRUE,200,"",FALSE,"",FALSE,"","",""
"ADPP",2.591,"PPORRESU","Original Units","Char","Variable Qualifier","Exp",FALSE,TRUE,40,"",FALSE,"",FALSE,"","",""
"ADPP",2.592,"PPSTRESC","Character Result/Finding in Std Format","text","Result Qualifier","Perm",FALSE,FALSE,200,"",FALSE,"",FALSE,"","",""
"ADPP",2.593,"PPSTRESN","Numeric Result/Finding in Standard Units","integer","Result Qualifier","Cond",FALSE,FALSE,12,"",FALSE,"",FALSE,"","",""
"ADPP",2.594,"PPSTRESU","Standard Units","text","Result Qualifier","Perm",FALSE,FALSE,40,"",FALSE,"",FALSE,"","",""
"ADPP",2.595,"PPSTAT","Completion Status","text","Synonym Qualifier","Cond",FALSE,FALSE,8,"C66789",FALSE,"",FALSE,"","",""
"ADPP",2.596,"PPREASND","Reason Parameter Not Calculated","text","Topic","Perm",FALSE,FALSE,200,"",FALSE,"",FALSE,"","",""
"ADPP",2.597,"PPSPEC","Specimen Material Type","text","Topic","Perm",FALSE,FALSE,40,"",FALSE,"",FALSE,"","",""
"ADPP",2.598,"PPRFTDTC","Date/Time of Reference Point","Char","Timing","Perm",FALSE,FALSE,25,"",FALSE,"",FALSE,"","",""
"ADPP",2.598,"PPENINT","Planned End of Assessment Interval","duration","Topic","Perm",FALSE,FALSE,25,"",FALSE,"",FALSE,"","",""
"ADPP",2.5981,"PPSTINT","Planned Start of Assessment Interval","duration","Topic","Perm",FALSE,FALSE,25,"",FALSE,"",FALSE,"","",""
"ADPP",3,"ASEQ","Analysis Sequence Number","integer","Identifier","Perm",FALSE,TRUE,12,"",TRUE,"",FALSE,"","",""
"ADPP",7,"SITEID","Study Site Identifier","text","Identifier","Perm",FALSE,TRUE,20,"",TRUE,"",FALSE,"","",""
"ADPP",9,"TRTSEQA","Actual Sequence of Treatments","text","Identifier","Cond",FALSE,TRUE,200,"",TRUE,"",FALSE,"","",""
"ADPP",10,"TRTSEQP","Planned Sequence of Treatments","text","Identifier","Cond",FALSE,TRUE,200,"",TRUE,"",FALSE,"","",""
"ADPP",11.05,"SEX","Sex","text","Topic","Req",FALSE,TRUE,2,"",TRUE,"",FALSE,"","",""
"ADPP",11.06,"RACE","Race","text","Topic","Req",FALSE,TRUE,200,"",TRUE,"",FALSE,"","",""
"ADPP",11.1,"AGE","Age","integer","Topic","Req",FALSE,TRUE,12,"",TRUE,"",FALSE,"","",""
"ADPP",11.1,"AAGE","Analysis Age","integer","Topic","Perm",FALSE,TRUE,12,"",TRUE,"",FALSE,"","",""
"ADPP",11.2,"AGEU","Age Units","text","Result Qualifier","Req",FALSE,TRUE,6,"",TRUE,"",FALSE,"","",""
"ADPP",11.21,"ETHNIC","Ethnicity","text","Topic","Perm",FALSE,TRUE,200,"",TRUE,"",FALSE,"","",""
"ADPP",11.22,"AVAL","Analysis Value","float","Result Qualifier","Cond",FALSE,FALSE,12,"",FALSE,"",TRUE,"","",""
"ADPP",11.221,"AVALC","Analysis Value (C)","text","Result Qualifier","Cond",FALSE,FALSE,200,"",FALSE,"",FALSE,"","",""
"ADPP",11.222,"AVALU","Analysis Value Unit","text","Result Qualifier","Req",FALSE,FALSE,40,"",FALSE,"",FALSE,"","",""
"ADPP",12,"PARAM","Parameter","text","Topic","Req",FALSE,FALSE,100,"",FALSE,"",FALSE,"","",""
"ADPP",13,"PARAMCD","Parameter Code","text","Topic","Req",FALSE,FALSE,8,"",FALSE,"",FALSE,"","",""
"ADPP",17,"COUNTRY","Country","text","Topic","Perm",FALSE,TRUE,3,"",TRUE,"",FALSE,"","",""
"ADPP",25,"REGION1","Geographic Region 1","text","Topic","Perm",TRUE,TRUE,200,"",TRUE,"",FALSE,"","",""
"ADPP",27,"AGEGR1","Pooled Age Group 1","text","Grouping Qualifier","Perm",TRUE,TRUE,10,"",TRUE,"",FALSE,"","",""
"ADPP",28,"AGEGR2","Pooled Age Group 2","text","Grouping Qualifier","Perm",TRUE,TRUE,10,"",TRUE,"",FALSE,"","",""
"ADPP",29,"AGEGR3","Pooled Age Group 3","text","Grouping Qualifier","Perm",TRUE,TRUE,10,"",TRUE,"",FALSE,"","",""
"ADPP",30,"AVISIT","Analysis Visit","text","Grouping Qualifier","Cond",FALSE,FALSE,200,"",FALSE,"",FALSE,"","",""
"ADPP",30,"AVISITN","Analysis Visit (N)","integer","Grouping Qualifier","Perm",FALSE,FALSE,12,"",FALSE,"",FALSE,"","",""
"ADPP",30.5,"ATPT","Analysis Timepoint","text","Timing","Cond",FALSE,FALSE,40,"",FALSE,"",FALSE,"","",""
"ADPP",30.5,"ATPTN","Analysis Timepoint (N)","integer","Timing","Cond",FALSE,FALSE,12,"",FALSE,"",FALSE,"","",""
"ADPP",32,"PARCAT1","Parameter Category 1","text","Grouping Qualifier","Perm",TRUE,FALSE,40,"",FALSE,"",FALSE,"","",""
"ADPP",33,"PARCAT1","Parameter Category 1","text","Grouping Qualifier","Perm",TRUE,FALSE,40,"",FALSE,"",FALSE,"","",""
"ADPP",36,"STRATwD","Description of Stratification Factor w","text","Grouping Qualifier","Perm",FALSE,TRUE,200,"",TRUE,"",FALSE,"","",""
"ADPP",37,"STRATwR","Strat Factor w Value Used for Rand","text","Grouping Qualifier","Perm",FALSE,TRUE,200,"",TRUE,"",FALSE,"","",""
"ADPP",38,"STRATwV","Verified Value of Stratum w","text","Grouping Qualifier","Perm",TRUE,TRUE,200,"",TRUE,"",FALSE,"","",""
"ADPP",41,"ADTF","Analysis Date Imputation Flag","text","Record Qualifier","Cond",FALSE,FALSE,1,"",FALSE,"",FALSE,"","",""
"ADPP",42,"ATMF","Analysis Time Imputation Flag","text","Record Qualifier","Cond",FALSE,FALSE,1,"",FALSE,"",FALSE,"","",""
"ADPP",43,"ITTFL","Intent-To-Treat Population Flag","text","Record Qualifier","Cond",FALSE,TRUE,1,"",TRUE,"",FALSE,"","",""
"ADPP",44,"PPROTFL","Per-Protocol Population Flag","text","Record Qualifier","Cond",FALSE,TRUE,1,"",TRUE,"",FALSE,"","",""
"ADPP",45,"SAFFL","Safety Population Flag","text","Record Qualifier","Cond",FALSE,TRUE,1,"",TRUE,"",FALSE,"","",""
"ADPP",48,"AAGEU","Analysis Age Unit","text","Result Qualifier","Perm",FALSE,TRUE,6,"",TRUE,"",FALSE,"","",""
"ADPP",54,"PPDTC","Date/Time of Parameter Calculations","dateTime","Timing","Req",FALSE,FALSE,25,"",FALSE,"",FALSE,"","",""
"ADPP",55,"TRT01P","Planned Treatment for Period 01","text","Timing","Req",TRUE,TRUE,200,"",TRUE,"",FALSE,"","",""
"ADPP",55,"TRTxxP","Planned Treatment for Period xx","text","Timing","Cond",FALSE,TRUE,200,"",TRUE,"",FALSE,"","",""
"ADPP",55,"TRT01A","Actual Treatment for Period 01","text","Timing","Cond",TRUE,TRUE,200,"",TRUE,"",FALSE,"","",""
"ADPP",55,"TRTxxA","Actual Treatment for Period xx","text","Timing","Cond",FALSE,TRUE,200,"",TRUE,"",FALSE,"","",""
"ADPP",56,"DCUTDT","Date of Data Cut","integer","Timing","Perm",TRUE,TRUE,12,"",TRUE,"",FALSE,"","",""
"ADPP",58,"ADT","Analysis Date","integer","Timing","Cond",FALSE,FALSE,12,"",FALSE,"",FALSE,"","",""
"ADPP",59,"ADTM","Analysis Datetime","integer","Timing","Cond",FALSE,FALSE,12,"",FALSE,"",FALSE,"","",""
"ADPP",60,"ADY","Analysis Relative Day","integer","Timing","Cond",FALSE,FALSE,12,"",FALSE,"",FALSE,"","",""
"ADPP",61,"ATM","Analysis Time","integer","Timing","Cond",FALSE,FALSE,12,"",FALSE,"",FALSE,"","",""
"ADPP",67,"TRTEDT","Date of Last Exposure to Treatment","integer","Timing","Cond",FALSE,TRUE,12,"",TRUE,"",FALSE,"","",""
"ADPP",68,"TRTEDTM","Datetime of Last Exposure to Treatment","integer","Timing","Cond",FALSE,TRUE,12,"",TRUE,"",FALSE,"","",""
"ADPP",69,"TRTSDT","Date of First Exposure to Treatment","integer","Timing","Cond",FALSE,TRUE,12,"",TRUE,"",FALSE,"","",""
"ADPP",70,"TRTSDTM","Datetime of First Exposure to Treatment","integer","Timing","Cond",FALSE,TRUE,12,"",TRUE,"",FALSE,"","",""
"ADPP",189.5,"PPFAST","Fasting Status","text","Record Qualifier","Perm",TRUE,FALSE,50,"",FALSE,"",FALSE,"","",""
"PP",1,"STUDYID","Study Identifier","Char","Identifier","Req",FALSE,TRUE,8,"",TRUE,"",FALSE,"","",""
"PP",2,"DOMAIN","Domain Abbreviation","Char","Identifier","Req",FALSE,TRUE,2,"",TRUE,"",FALSE,"","",""
"PP",3,"USUBJID","Unique Subject Identifier","Char","Identifier","Req",FALSE,TRUE,50,"",TRUE,"",FALSE,"","",""
"PP",4,"PPSEQ","Sequence Number","Num","Identifier","Req",FALSE,TRUE,12,"",TRUE,"",FALSE,"","",""
"PP",5,"PPGRPID","Group ID","Char","Identifier","Perm",FALSE,TRUE,100,"",TRUE,"",FALSE,"","",""
"PP",6,"PPTESTCD","Parameter Short Name","Char","Topic","Req",FALSE,TRUE,8,"C85839",TRUE,"",FALSE,"","",""
"PP",7,"PPTEST","Parameter Name","Char","Synonym Qualifier","Req",FALSE,TRUE,40,"",TRUE,"",FALSE,"","",""
"PP",8,"PPCAT","Parameter Category","Char","Grouping Qualifier","Exp",FALSE,TRUE,100,"",TRUE,"",FALSE,"","",""
"PP",9,"PPSCAT","Parameter Subcategory","Char","Grouping Qualifier","Perm",FALSE,TRUE,100,"",TRUE,"",FALSE,"","",""
"PP",10,"PPORRES","Result or Finding in Original Units","Char","Result Qualifier","Exp",FALSE,TRUE,200,"",TRUE,"",FALSE,"","",""
"PP",11,"PPORRESU","Original Units","Char","Variable Qualifier","Exp",FALSE,TRUE,40,"",TRUE,"",FALSE,"","",""
"PP",12,"PPSTRESC","Character Result/Finding in Std Format","Char","Result Qualifier","Exp",FALSE,TRUE,200,"",TRUE,"",FALSE,"","",""
"PP",13,"PPSTRESN","Numeric Result/Finding in Standard Units","Num","Result Qualifier","Exp",FALSE,TRUE,12,"",TRUE,"",FALSE,"","",""
"PP",14,"PPSTRESU","Standard Units","Char","Variable Qualifier","Exp",FALSE,TRUE,40,"",TRUE,"",FALSE,"","",""
"PP",15,"PPSTAT","Completion Status","Char","Record Qualifier","Perm",FALSE,TRUE,8,"C66789",TRUE,"",FALSE,"","",""
"PP",16,"PPREASND","Reason Parameter Not Calculated","Char","Record Qualifier","Perm",FALSE,TRUE,200,"",TRUE,"",FALSE,"","",""
"PP",17,"PPSPEC","Specimen Material Type","Char","Record Qualifier","Exp",FALSE,TRUE,40,"",TRUE,"",FALSE,"","",""
"PP",18,"PPANMETH","Analysis Method","Char","Record Qualifier","Perm",FALSE,TRUE,200,"",TRUE,"",FALSE,"","",""
"PP",19,"PTAETORD","Planned Order of Element within Arm","Num","Timing","Perm",FALSE,TRUE,12,"",TRUE,"",FALSE,"","",""
"PP",20,"EPOCH","Epoch","Char","Timing","Perm",FALSE,TRUE,40,"C99079",TRUE,"",FALSE,"","",""
"PP",21,"PPPDTC","Date/Time of Parameter Calculations","Char","Timing","Perm",FALSE,TRUE,25,"",TRUE,"",FALSE,"","",""
"PP",22,"PPPDY","Study Day of Parameter Calculations","Num","Timing","Perm",FALSE,TRUE,12,"",TRUE,"",FALSE,"","",""
"PP",23,"PPTPTREF","Time Point Reference","Char","Timing","Perm",FALSE,TRUE,40,"",TRUE,"",FALSE,"","",""
"PP",24,"PPRFTDTC","Date/Time of Reference Point","Char","Timing","Exp",FALSE,TRUE,25,"",TRUE,"",FALSE,"","",""
"PP",25,"PPSTINT","Planned Start of Assessment Interval","Char","Timing","Perm",FALSE,TRUE,25,"",TRUE,"",FALSE,"","",""
"PP",26,"PPENINT","Planned End of Assessment Interval","Char","Timing","Perm",FALSE,TRUE,25,"",TRUE,"",FALSE,"","",""
"ADPC",12,"DOSEU","Actual Treatment Dose Units","text","Topic","Req",FALSE,FALSE,40,"C71620",FALSE,"mg, g, ug, ng, pg, mol, mmol, umol, nmol, pmol, mg/kg, g/kg, ug/kg, ng/kg, pg/kg, mol/kg, mmol/kg, umol/kg, nmol/kg, pmol/kg",TRUE,"Character column for unit of DOSEA (C71620), Instead of a column an unique value can be mapped for all records (i.e, ""mg/L"")","Unit Variables","DOSEAU, DOSEPU"
"ADPC",13,"DOSETRT","Name of Treatment","Char","Topic","Req",FALSE,TRUE,40,"",FALSE,"",FALSE,"Character column of the protocol-specified study treatmetn given durin the dosing period","Dose Variables","TRTA, TRTP, EXTRT, ECTRT"
"ADPC",103,"DOSETRT","Medication Name","text","Topic","Cond",TRUE,FALSE,200,"",FALSE,"",TRUE,"Character column for drug compound administrated. Its terminology must match with PARAM. Only required when the data contains multi-analyte assays. If not mapped, is assumed to be equal to PARAM.","Supplemental Variables",""
