"Dataset","Order","Variable","Label","Type","Role","Core","company_specific","is.core","Length","Controlled_Terms","is.used","Values","is.mapped","mapping_tooltip","mapping_section","mapping_alternatives","mapping_order","allow_create_numeric"
"ADNCA",1,"STUDYID","Study Identifier","text","Identifier","Req",FALSE,TRUE,8,"",TRUE,"",TRUE,"Character column to identify the study","Group Identifiers","",1,FALSE
"ADNCA",2,"USUBJID","Unique Subject Identifier","text","Identifier","Req",FALSE,TRUE,50,"",TRUE,"",TRUE,"Character column to identify a subject across studies","Group Identifiers","",2,FALSE
"ADNCA",229,"ATPTREF","Analysis Timepoint Reference","text","Timing","Perm",FALSE,FALSE,200,"",FALSE,"",TRUE,"Character column to indicate the time point reference, profile or analysis visit. Observed visit names, time window names, conceptual descriptions or any producer defined value may be used. Merely used for filtering and arranging purposes.","Group Identifiers","AVISIT, DOSNO, DOSNOA, DOSNOP, NCA_PROFILE",3,FALSE
"ADNCA",16,"PARAM","Parameter","text","Topic","Req",FALSE,FALSE,100,"",FALSE,"",TRUE,"Character column indicating the name of the measured analyte","Sample Variables","",4,FALSE
"ADNCA",198,"METABFL","Metabolite Flag","text","Record Qualifier","Cond",FALSE,FALSE,1,"",FALSE,"Y, ",FALSE,"Character column (""Y"", """") indicating if PARAM is a metabolite. Only required when the data contains multi-analyte assays. If not mapped, is assumed there are no metabolites (METABFL="""")","Supplemental Variables","",5,FALSE
"ADNCA",72,"PCSPEC","Specimen Material Type","text","Topic","Perm",FALSE,FALSE,40,"C78734",FALSE,"PLASMA, SERUM, URINE, BLOOD, BONE, BILE, MUCUS, SALIVA, SKIN TISSUE, TISSUE, SPUTUM, SEMEN",TRUE,"Character column for sample's type of specimen or matrix (C78734). Instead of a column name, a unique value can be mapped for all records  (i.e, ""PLASMA"", ""SERUM"" or ""URINE"")","Sample Variables","",6,FALSE
"ADNCA",202,"AVAL","Analysis Value","float","Result Qualifier","Req",FALSE,FALSE,12,"",FALSE,"",TRUE,"Numeric column for analyte concentration. BLQ values, if not already imputed, are assumed to be 0.","Sample Variables","PCSTRES, PCORRES",7,FALSE
"ADNCA",88,"ROUTE","Route of Administration","text","Topic","Perm",FALSE,FALSE,40,"C66729",FALSE,"INTRAVASCULAR, ORAL, AURICULAR (OTIC), BUCCAL, CONJUNCTIVAL, CUTANEOUS, DENTAL, DIETARY, ELECTRO-OSMOSIS, ENDOCERVICAL, ENDOSINUSIAL, ENDOTRACHEAL, ENTERAL, EPIDURAL, EXTRA-AMNIOTIC, EXTRACORPOREAL, GASTROJEJUNAL, HEMODIALYSIS, IMMERSION, INFILTRATION, INTERSTITIAL, INTRA-ABDOMINAL, INTRA-AMNIOTIC, INTRA-ARTERIAL, INTRA-ARTICULAR, INTRABILIARY, INTRABRONCHIAL, INTRABURSAL, INTRACAMERAL, INTRACARDIAC, INTRACARTILAGINOUS, INTRACAUDAL, INTRACAVERNOUS, INTRACAVITARY, INTRACEREBRAL, INTRACISTERNAL, INTRACOCHLEAR, INTRACORNEAL, INTRACORONAL, DENTAL, INTRACORONARY, INTRACORPORUS CAVERNOSUM, INTRADERMAL, INTRADISCAL, INTRADUCTAL, INTRADUODENAL, INTRADURAL, INTRAEPIDERMAL, INTRAESOPHAGEAL, INTRAGASTRIC, INTRAGINGIVAL, INTRAHEPATIC, INTRAILEAL, INTRAJEJUNAL, INTRALESIONAL, INTRALUMINAL, INTRALYMPHATIC, INTRAMAMMARY, INTRAMANDIBULAR, INTRAMEDULLARY, INTRAMENINGEAL, INTRAMUSCULAR, INTRANODAL, INTRAOCULAR, INTRAOSSEOUS, INTRAOVARIAN, INTRAPALATAL, INTRAPARENCHYMAL, INTRAPERICARDIAL, INTRAPERITONEAL, INTRAPLEURAL, INTRAPROSTATIC, INTRAPULMONARY, INTRARUMINAL, INTRASINAL, INTRASPINAL, INTRASTOMAL, INTRASURGICAL SITE, INTRASYNOVIAL, INTRATENDINOUS, INTRATESTICULAR, INTRATHALAMIC, INTRATHECAL, INTRATHORACIC, INTRATUBULAR, INTRATUMOR, INTRATYMPANIC, INTRAUTERINE, INTRAVAGINAL, INTRAVENOUS, INTRAVENOUS BOLUS, INTRAVENOUS DRIP, INTRAVENTRICULAR, INTRAVESICAL, INTRAVITREAL, IONTOPHORESIS, IRRIGATION, LARYNGEAL, MICRODIALYSIS, NASAL, NASODUODENAL, NASOJEJUNAL, NOT APPLICABLE, OCCLUSIVE DRESSING TECHNIQUE, OPHTHALMIC, ORAL GAVAGE, OROGASTRIC, OROMUCOSAL, OROPHARYNGEAL, PARENTERAL, PERCUTANEOUS, PERIARTICULAR, PERIDURAL, PERINEURAL, PERIODONTAL, PERIVENOUS, PHARYNGEAL, RECTAL, RESPIRATORY (INHALATION), RETROBULBAR, SOFT TISSUE, SUBARACHNOID, SUBCONJUNCTIVAL, SUBCUTANEOUS, SUBDURAL, SUBLINGUAL, SUBMUCOSAL, SUBRETINAL, SUBTENON, SUPRACHOROIDAL, TOPICAL, TRANSDERMAL, TRANSMAMMARY, TRANSMUCOSAL, TRANSPLACENTAL, TRANSTRACHEAL, TRANSTYMPANIC, UNASSIGNED, UNKNOWN, URETERAL, URETHRAL, VAGINAL,FALSE
",TRUE,"Character column for dose administration (C66729 or 'intravascular' / 'extravascular'). Instead of a column name, a unique value can be mapped for all records (i.e, 'INTRAVASCULAR', 'ORAL')","Dose Variables","EXROUTE",8,FALSE
"ADNCA",13,"DOSETRT","Name of Treatment","Char","Topic","Req",FALSE,TRUE,40,"",FALSE,"",TRUE,"Character column of the protocol-specified study treatment given during the dosing period","Dose Variables","TRTA, TRTP, EXTRT, ECTRT, DRUG",9,FALSE
"ADNCA",11,"DOSEA","Actual Treatment Dose","float","Topic","Req",FALSE,FALSE,12,"",FALSE,"",TRUE,"Numeric column for actual dose amount given in the last administration","Dose Variables","DOSEP",10,FALSE
"ADNCA",28,"AFRLT","Act. Rel. Time from Analyte First Dose","float","Topic","Perm",FALSE,FALSE,12,"",FALSE,"",TRUE,"Numeric column indicating actual time of sample collection since first dose","Time Variables","",11,FALSE
"ADNCA",28,"ARRLT","Actual Rel. Time from Ref. Dose","integer","Topic","Req",FALSE,FALSE,12,"",FALSE,"",TRUE,"Numeric column indicating actual time of sample collection since last dose","Time Variables","",12,FALSE
"ADNCA",63,"NFRLT","Nom. Rel. Time from Analyte First Dose","float","Topic","Perm",FALSE,FALSE,12,"",FALSE,"",TRUE,"Numeric column indicating planned time of sample collection since first dose","Time Variables","",13,FALSE
"ADNCA",28,"NRRLT","Nominal Rel. Time from Ref. Dose","float","Topic","Req",FALSE,FALSE,12,"",FALSE,"",TRUE,"Numeric column indicating planned time of sample collection since last dose","Time Variables","",14,FALSE
"ADNCA",204,"AVALU","Analysis Value Unit","text","Result Qualifier","Req",FALSE,FALSE,40,"",FALSE,"mg/L, ug/mL, ng/mL, pg/mL, mol/L, mmol/L, umol/L, nmol/L, pmol/L, mg/dL, ug/dL, ng/dL",TRUE,"Character column for unit of AVAL","Unit Variables","PCSTRESU, PCORRESU",15,FALSE
"ADNCA",111,"RRLTU","Rel. Time from Ref. Dose Unit","text","Synonym Qualifier","Req",FALSE,FALSE,8,"",FALSE,"hr, day, week, month, year, sec, min",TRUE,"Character column for unit of all time variables (ARRLT, NRRLT, AFRLT, NFRLT). Instead of a column name, a unique value can be mapped for all records (i.e, ""hr"")","Unit Variables","",16,FALSE
"ADNCA",12,"DOSEU","Actual Treatment Dose Units","text","Topic","Req",FALSE,FALSE,40,"C71620",FALSE,"mg, g, ug, ng, pg, mol, mmol, umol, nmol, pmol, mg/kg, g/kg, ug/kg, ng/kg, pg/kg, mol/kg, mmol/kg, umol/kg, nmol/kg, pmol/kg",TRUE,"Character column for unit of DOSEA (C71620). Instead of a column name, a unique value can be mapped for all records (i.e, ""mg/L"")","Unit Variables","DOSEAU, DOSEPU",17,FALSE
"ADNCA",25,"AEFRLT","Act. Rel. End Time from First Dose","float","Topic","Perm",FALSE,FALSE,12,"",FALSE,"",TRUE,"Numeric column indicating the actual end time of sample collection since first dose. Typically used for feces or urine samples","Supplemental Variables","AFRLT",19,FALSE
"ADNCA",100,"ADOSEDUR","Actual Duration of Treatment Dose","float","Topic","Cond",FALSE,FALSE,12,"",FALSE,"",TRUE,"Numeric column for dose administration duration. Only required when the data contains dose infusions. If not mapped, all values are set to 0.","Supplemental Variables","",21,TRUE
"ADNCA",163,"VOLUME","Volume Value","float","Synonym Qualifier","Cond",FALSE,FALSE,12,"",FALSE,"",TRUE,"Numeric column for collected sample's volume. Only required for excretion studies.","Supplemental Variables","",22,FALSE
"ADNCA",164,"VOLUMEU","Volume Value Unit","text","Synonym Qualifier","Cond",FALSE,FALSE,40,"",FALSE,"mL, L, uL, dL, cL",TRUE,"Character column for unit of VOLUME (C71620). Instead of a column name, a unique value can be mapped for all records (i.e, ""mL""). Only relevant when VOLUME is mapped.","Supplemental Variables","",23,FALSE
"ADNCA",99,"WTBL","Weight at Baseline","float","Topic","Perm",TRUE,FALSE,12,"",FALSE,"",TRUE,"Numeric column for subject's weight. Only required for excretion studies.","Supplemental Variables","WEIGHT",24,FALSE
"ADNCA",162,"WTBLU","Weight at Baseline (Unit)","text","Synonym Qualifier","Perm",TRUE,FALSE,40,"",FALSE,"mg, g, kg",TRUE,"Character column for unit of WTBL. Instead of a column name, a unique value can be mapped for all records (i.e, ""kg""). Only relevant when WTBL is mapped.","Supplemental Variables","WEIGHTU",25,FALSE
"ADNCA",97,"TRTRINT","Planned Treatment Interval","float","Topic","Perm",FALSE,FALSE,12,"",FALSE,"",TRUE,"Numeric column for planned time between 2 consecutive doses in multiple dose studies (optional, sometimes referred to as TAU). Must be in RRTLU units","Supplemental Variables","TAU",26,TRUE
"ADNCA",57,"NCAwXRS","Reason w for PK NCA Exclusion","Character","Topic","Perm",FALSE,FALSE,200,"",FALSE,"",TRUE,"Character column(s) used to explain why the record must not be included in the PK NCA. Only populated for records to exclude, for the rest should be empty ("""").","Supplemental Variables","NCA1XRS, NCA2XRS, NCA3XRS, NCA4XRS, NCA5XRS, NCA6XRS, NCA7XRS, NCA8XRS, NCA9XRS, NCA10XRS, NCA11XRS, NCA12XRS, NCA13XRS, NCA14XRS, NCA15XRS, NCA16XRS, NCA17XRS, NCA18XRS, NCA19XRS, NCA20XRS, NCA21XRS, NCA22XRS, NCA23XRS, NCA24XRS, NCA25XRS, NCA26XRS, NCA27XRS, NCA28XRS, NCA29XRS, NCA30XRS",20,FALSE
"ADNCA",20,"AAGBL","Alpha-1 Acid Glycoprotein at Baseline","float","Topic","Perm",TRUE,FALSE,12,"C66742",FALSE,"",FALSE,"","","",NA,FALSE
"ADNCA",112,"AAGBLU","AAG at baseline (Unit)","text","Synonym Qualifier","Perm",TRUE,FALSE,40,"",FALSE,"",FALSE,"","","",NA,FALSE
"ADPP",11.1,"AAGE","Analysis Age","integer","Topic","Perm",FALSE,TRUE,12,"",TRUE,"",FALSE,"","","",NA,FALSE
"ADNCA",21,"AAGE","Analysis Age","integer","Topic","Perm",FALSE,TRUE,12,"",TRUE,"",FALSE,"","","",NA,FALSE
"ADPP",48,"AAGEU","Analysis Age Unit","text","Result Qualifier","Perm",FALSE,TRUE,6,"",TRUE,"",FALSE,"","","",NA,FALSE
"ADNCA",113,"AAGEU","Analysis Age Unit","text","Synonym Qualifier","Perm",FALSE,TRUE,6,"",TRUE,"",FALSE,"","","",NA,FALSE
"ADNCA",192,"ABLFL","Baseline Record Flag","text","Record Qualifier","Cond",FALSE,FALSE,1,"",FALSE,"",FALSE,"","","",NA,FALSE
"ADNCA",22,"ACYCLE","Analysis Cycle","integer","Topic","Perm",FALSE,FALSE,12,"",FALSE,"",FALSE,"","","",NA,FALSE
"ADNCA",23,"ACYCLEC","Analysis Cycle (C)","text","Topic","Perm",FALSE,FALSE,40,"",FALSE,"",FALSE,"","","",NA,FALSE
"ADNCA",24,"ADA","Treatment Emergent ADA status","text","Topic","Perm",TRUE,FALSE,40,"",FALSE,"",FALSE,"","","",NA,FALSE
"ADPP",58,"ADT","Analysis Date","integer","Timing","Cond",FALSE,FALSE,12,"",FALSE,"",FALSE,"","","",NA,FALSE
"ADNCA",242,"ADT","Analysis Date","integer","Timing","Cond",FALSE,FALSE,12,"",FALSE,"",FALSE,"","","",NA,FALSE
"ADPP",41,"ADTF","Analysis Date Imputation Flag","text","Record Qualifier","Cond",FALSE,FALSE,1,"",FALSE,"",FALSE,"","","",NA,FALSE
"ADNCA",243,"ADTF","Analysis Date Imputation Flag","text","Timing","Cond",FALSE,FALSE,1,"",FALSE,"",FALSE,"","","",NA,FALSE
"ADPP",59,"ADTM","Analysis Datetime","integer","Timing","Cond",FALSE,FALSE,12,"",FALSE,"",FALSE,"","","",NA,FALSE
"ADNCA",244,"ADTM","Analysis Datetime","integer","Timing","Cond",FALSE,FALSE,12,"",FALSE,"",FALSE,"","","",NA,FALSE
"ADPP",60,"ADY","Analysis Relative Day","integer","Timing","Cond",FALSE,FALSE,12,"",FALSE,"",FALSE,"","","",NA,FALSE
"ADNCA",245,"ADY","Analysis Relative Day","integer","Timing","Cond",FALSE,FALSE,12,"",FALSE,"",FALSE,"","","",NA,FALSE
"ADNCA",223,"AENDT","Analysis End Date","integer","Timing","Perm",FALSE,FALSE,12,"",FALSE,"",FALSE,"","","",NA,FALSE
"ADNCA",246,"AENDTF","Analysis End Date Imputation Flag","text","Timing","Cond",FALSE,FALSE,1,"",FALSE,"",FALSE,"","","",NA,FALSE
"ADNCA",224,"AENDTM","Analysis End Date/Time","integer","Timing","Perm",FALSE,FALSE,12,"",FALSE,"",FALSE,"","","",NA,FALSE
"ADNCA",225,"AENTM","Analysis End Time","integer","Timing","Perm",FALSE,FALSE,12,"",FALSE,"",FALSE,"","","",NA,FALSE
"ADNCA",247,"AENTMF","Analysis End Time Imputation Flag","text","Timing","Cond",FALSE,FALSE,1,"",FALSE,"",FALSE,"","","",NA,FALSE
"ADNCA",26,"AERRLT","Actual Rel. End Time from Ref. Dose","float","Topic","Perm",FALSE,FALSE,12,"",FALSE,"",FALSE,"","","",NA,FALSE
"ADNCA",27,"AERRLT","Actual Rel. End Time from Ref. Dose","float","Topic","Perm",FALSE,FALSE,12,"",FALSE,"",FALSE,"","","",NA,FALSE
"ADNCA",9,"AGE","Age","integer","Topic","Req",FALSE,TRUE,12,"",TRUE,"",FALSE,"","","",NA,FALSE
"ADPP",11.1,"AGE","Age","integer","Topic","Req",FALSE,TRUE,12,"",TRUE,"",FALSE,"","","",NA,FALSE
"ADPP",27,"AGEGR1","Pooled Age Group 1","text","Grouping Qualifier","Perm",TRUE,TRUE,10,"",TRUE,"",FALSE,"","","",NA,FALSE
"ADNCA",173,"AGEGR1","Pooled Age Group 1","text","Grouping Qualifier","Perm",TRUE,TRUE,10,"",TRUE,"",FALSE,"","","",NA,FALSE
"ADPP",28,"AGEGR2","Pooled Age Group 2","text","Grouping Qualifier","Perm",TRUE,TRUE,10,"",TRUE,"",FALSE,"","","",NA,FALSE
"ADNCA",174,"AGEGR2","Pooled Age Group 2","text","Grouping Qualifier","Perm",TRUE,TRUE,10,"",TRUE,"",FALSE,"","","",NA,FALSE
"ADPP",29,"AGEGR3","Pooled Age Group 3","text","Grouping Qualifier","Perm",TRUE,TRUE,10,"",TRUE,"",FALSE,"","","",NA,FALSE
"ADNCA",175,"AGEGR3","Pooled Age Group 3","text","Grouping Qualifier","Perm",TRUE,TRUE,10,"",TRUE,"",FALSE,"","","",NA,FALSE
"ADPP",11.2,"AGEU","Age Units","text","Result Qualifier","Req",FALSE,TRUE,6,"",TRUE,"",FALSE,"","","",NA,FALSE
"ADNCA",110,"AGEU","Age Units","text","Synonym Qualifier","Req",FALSE,TRUE,6,"",TRUE,"",FALSE,"","","",NA,FALSE
"ADNCA",114,"ALBUBL","Albumin at Baseline","float","Synonym Qualifier","Perm",TRUE,FALSE,12,"",FALSE,"",FALSE,"","","",NA,FALSE
"ADNCA",115,"ALBUBLU","Albumin at baseline (Unit)","text","Synonym Qualifier","Perm",TRUE,FALSE,40,"",FALSE,"",FALSE,"","","",NA,FALSE
"ADNCA",116,"ALCOBL","Alcohol at Baseline","float","Synonym Qualifier","Perm",TRUE,FALSE,12,"",FALSE,"",FALSE,"","","",NA,FALSE
"ADNCA",29,"ALKPHBL","Alkaline Phosphatase at Baseline","float","Topic","Perm",TRUE,FALSE,12,"C66742",FALSE,"",FALSE,"","","",NA,FALSE
"ADNCA",117,"ALKPHBLU","Alkaline Phosphatase at Baseline (Unit)","text","Synonym Qualifier","Perm",TRUE,FALSE,40,"",FALSE,"",FALSE,"","","",NA,FALSE
"ADNCA",209,"ALLOQ","Analysis Lower Limit of Quantitation","float","Result Qualifier","Cond",FALSE,FALSE,12,"",FALSE,"",FALSE,"","","",NA,FALSE
"ADNCA",193,"ANL01FL","Analysis Flag 01","text","Record Qualifier","Cond",TRUE,FALSE,1,"",FALSE,"",FALSE,"","","",NA,FALSE
"ADNCA",194,"ANL02FL","Analysis Flag 02","text","Record Qualifier","Cond",TRUE,FALSE,1,"",FALSE,"",FALSE,"","","",NA,FALSE
"ADNCA",210,"ANL03FL","Analysis Flag 03","text","Record Qualifier","Cond",TRUE,FALSE,1,"",FALSE,"",FALSE,"","","",NA,FALSE
"ADNCA",211,"ANL04FL","Analysis Flag 04","text","Record Qualifier","Cond",TRUE,FALSE,1,"",FALSE,"",FALSE,"","","",NA,FALSE
"ADNCA",212,"ANL05FL","Analysis Flag 05","text","Record Qualifier","Cond",TRUE,FALSE,1,"",FALSE,"",FALSE,"","","",NA,FALSE
"ADNCA",182,"APERIOD","Period","integer","Grouping Qualifier","Cond",FALSE,FALSE,12,"",FALSE,"",FALSE,"","","",NA,FALSE
"ADNCA",183,"APERIODC","Period (C)","text","Grouping Qualifier","Cond",FALSE,FALSE,200,"",FALSE,"",FALSE,"","","",NA,FALSE
"ADPP",3,"ASEQ","Analysis Sequence Number","integer","Identifier","Perm",FALSE,TRUE,12,"",TRUE,"",FALSE,"","","",NA,FALSE
"ADNCA",30,"ASEQ","Analysis Sequence Number","integer","Topic","Perm",FALSE,TRUE,12,"",TRUE,"",FALSE,"","","",NA,FALSE
"ADNCA",226,"ASTDT","Analysis Start Date","integer","Timing","Perm",FALSE,FALSE,12,"",FALSE,"",FALSE,"","","",NA,FALSE
"ADNCA",248,"ASTDTF","Analysis Start Date Imputation Flag","text","Timing","Cond",FALSE,FALSE,1,"",FALSE,"",FALSE,"","","",NA,FALSE
"ADNCA",227,"ASTDTM","Analysis Start Date/Time","integer","Timing","Perm",FALSE,FALSE,12,"",FALSE,"",FALSE,"","","",NA,FALSE
"ADNCA",228,"ASTTM","Analysis Start Time","integer","Timing","Perm",FALSE,FALSE,12,"",FALSE,"",FALSE,"","","",NA,FALSE
"ADNCA",249,"ASTTMF","Analysis Start Time Imputation Flag","text","Timing","Cond",FALSE,FALSE,1,"",FALSE,"",FALSE,"","","",NA,FALSE
"ADPP",61,"ATM","Analysis Time","integer","Timing","Cond",FALSE,FALSE,12,"",FALSE,"",FALSE,"","","",NA,FALSE
"ADNCA",250,"ATM","Analysis Time","integer","Timing","Cond",FALSE,FALSE,12,"",FALSE,"",FALSE,"","","",NA,FALSE
"ADPP",42,"ATMF","Analysis Time Imputation Flag","text","Record Qualifier","Cond",FALSE,FALSE,1,"",FALSE,"",FALSE,"","","",NA,FALSE
"ADNCA",251,"ATMF","Analysis Time Imputation Flag","text","Timing","Cond",FALSE,FALSE,1,"",FALSE,"",FALSE,"","","",NA,FALSE
"ADPP",30.5,"ATPT","Analysis Timepoint","text","Timing","Cond",FALSE,FALSE,40,"",FALSE,"",FALSE,"","","",NA,FALSE
"ADNCA",252,"ATPT","Analysis Timepoint","text","Timing","Cond",FALSE,FALSE,40,"",FALSE,"",FALSE,"","","",NA,FALSE
"ADPP",30.5,"ATPTN","Analysis Timepoint (N)","integer","Timing","Cond",FALSE,FALSE,12,"",FALSE,"",FALSE,"","","",NA,FALSE
"ADNCA",254,"ATPTN","Analysis Timepoint (N)","integer","Timing","Cond",FALSE,FALSE,12,"",FALSE,"",FALSE,"","","",NA,FALSE
"ADPP",11.22,"AVAL","Analysis Value","float","Result Qualifier","Cond",FALSE,FALSE,12,"",FALSE,"",TRUE,"","","",NA,FALSE
"ADPP",11.221,"AVALC","Analysis Value (C)","text","Result Qualifier","Cond",FALSE,FALSE,200,"",FALSE,"",FALSE,"","","",NA,FALSE
"ADNCA",203,"AVALCAT1","Analysis Value Category 1","text","Result Qualifier","Req",TRUE,FALSE,200,"",FALSE,"",FALSE,"","","",NA,FALSE
"ADPP",11.222,"AVALU","Analysis Value Unit","text","Result Qualifier","Req",FALSE,FALSE,40,"",FALSE,"",FALSE,"","","",NA,FALSE
"ADPP",30,"AVISIT","Analysis Visit","text","Grouping Qualifier","Cond",FALSE,FALSE,200,"",FALSE,"",FALSE,"","","",NA,FALSE
"ADNCA",166,"AVISIT","Analysis Visit","text","Grouping Qualifier","Req",FALSE,FALSE,200,"",FALSE,"",FALSE,"","","",NA,FALSE
"ADPP",30,"AVISITN","Analysis Visit (N)","integer","Grouping Qualifier","Perm",FALSE,FALSE,12,"",FALSE,"",FALSE,"","","",NA,FALSE
"ADNCA",168,"AVISITN","Analysis Visit (N)","integer","Grouping Qualifier","Req",FALSE,FALSE,12,"",FALSE,"",FALSE,"","","",NA,FALSE
"ADNCA",213,"BASE","Baseline Value","float","Result Qualifier","Cond",FALSE,FALSE,12,"",FALSE,"",FALSE,"","","",NA,FALSE
"ADNCA",214,"BASETYPE","Baseline Type","text","Result Qualifier","Cond",FALSE,FALSE,200,"",FALSE,"",FALSE,"","","",NA,FALSE
"ADNCA",31,"BMIBL","BMI at Baseline","float","Topic","Perm",TRUE,FALSE,12,"",FALSE,"",FALSE,"","","",NA,FALSE
"ADNCA",118,"BMIBLU","BMI at Baseline (Unit)","text","Synonym Qualifier","Perm",TRUE,FALSE,40,"",FALSE,"",FALSE,"","","",NA,FALSE
"ADNCA",32,"BSABL","BSA at Baseline","float","Topic","Perm",TRUE,FALSE,12,"",FALSE,"",FALSE,"","","",NA,FALSE
"ADNCA",119,"BSABLU","BSA at Baseline (Unit)","text","Synonym Qualifier","Perm",TRUE,FALSE,40,"",FALSE,"",FALSE,"","","",NA,FALSE
"ADNCA",33,"BUNBL","Blood Urea Nitrogen at Baseline","float","Topic","Perm",TRUE,FALSE,12,"",FALSE,"",FALSE,"","","",NA,FALSE
"ADNCA",120,"BUNBLU","Blood Urea Nitrogen at baseline (Unit)","text","Synonym Qualifier","Perm",TRUE,FALSE,40,"",FALSE,"",FALSE,"","","",NA,FALSE
"ADNCA",34,"CALCBL","Calcium at Baseline","float","Topic","Perm",TRUE,FALSE,12,"",FALSE,"",FALSE,"","","",NA,FALSE
"ADNCA",121,"CALCBLU","Calcium at baseline (Unit)","text","Synonym Qualifier","Perm",TRUE,FALSE,40,"",FALSE,"",FALSE,"","","",NA,FALSE
"ADNCA",206,"CHG","Change from Baseline","float","Result Qualifier","Perm",FALSE,FALSE,12,"",FALSE,"",FALSE,"","","",NA,FALSE
"ADNCA",35,"CLBL","Chloride at Baseline","float","Topic","Perm",TRUE,FALSE,12,"",FALSE,"",FALSE,"","","",NA,FALSE
"ADNCA",122,"CLBLU","Chloride at baseline (Unit)","text","Synonym Qualifier","Perm",TRUE,FALSE,40,"",FALSE,"",FALSE,"","","",NA,FALSE
"ADNCA",176,"COHORT","Subject Cohort","text","Grouping Qualifier","Perm",FALSE,FALSE,200,"",FALSE,"",FALSE,"","","",NA,FALSE
"ADNCA",177,"COHORTN","Subject Cohort (N)","integer","Grouping Qualifier","Perm",FALSE,FALSE,12,"",FALSE,"",FALSE,"","","",NA,FALSE
"ADPP",17,"COUNTRY","Country","text","Topic","Perm",FALSE,TRUE,3,"",TRUE,"",FALSE,"","","",NA,FALSE
"ADNCA",123,"COUNTRY","Country","text","Synonym Qualifier","Perm",FALSE,TRUE,3,"",TRUE,"",FALSE,"","","",NA,FALSE
"ADNCA",36,"CRCLBL","CrCL at Baseline","float","Topic","Perm",TRUE,FALSE,12,"",FALSE,"",FALSE,"","","",NA,FALSE
"ADNCA",124,"CRCLBLU","CrCL at baseline (BLOOD)","text","Synonym Qualifier","Perm",TRUE,FALSE,40,"",FALSE,"",FALSE,"","","",NA,FALSE
"ADNCA",125,"CREATBL","Creatinine at Baseline (BLOOD)","float","Synonym Qualifier","Perm",TRUE,FALSE,12,"",FALSE,"",FALSE,"","","",NA,FALSE
"ADNCA",126,"CREATBLU","Creat at baseline (BLOOD)","text","Synonym Qualifier","Perm",TRUE,FALSE,40,"",FALSE,"",FALSE,"","","",NA,FALSE
"ADNCA",207,"CRIT1","Analysis Criterion 1","text","Result Qualifier","Perm",TRUE,FALSE,70,"",FALSE,"",FALSE,"","","",NA,FALSE
"ADNCA",195,"CRIT1FL","Criterion 1 Evaluation Result Flag","text","Record Qualifier","Cond",TRUE,FALSE,1,"",FALSE,"",FALSE,"","","",NA,FALSE
"ADNCA",196,"CRIT1FL","Criterion 1 Evaluation Result Flag","text","Record Qualifier","Cond",TRUE,FALSE,1,"",FALSE,"",FALSE,"","","",NA,FALSE
"ADNCA",37,"DBPBL","Diastolic BP at Baseline","float","Topic","Perm",TRUE,FALSE,12,"",FALSE,"",FALSE,"","","",NA,FALSE
"ADNCA",127,"DBPBLU","Diastolic BP at Baseline (Unit)","text","Synonym Qualifier","Perm",TRUE,FALSE,40,"",FALSE,"",FALSE,"","","",NA,FALSE
"ADPP",56,"DCUTDT","Date of Data Cut","integer","Timing","Perm",TRUE,TRUE,12,"",TRUE,"",FALSE,"","","",NA,FALSE
"ADNCA",230,"DCUTDT","Date of Data Cut","integer","Timing","Perm",TRUE,FALSE,12,"C66742",FALSE,"",FALSE,"","","",NA,FALSE
"ADPP",1.5,"DOMAIN","Domain Abbreviation","Char","Identifier","Req",FALSE,FALSE,2,"",TRUE,"",FALSE,"","","",NA,FALSE
"PP",2,"DOMAIN","Domain Abbreviation","Char","Identifier","Req",FALSE,TRUE,2,"",TRUE,"",FALSE,"","","",NA,FALSE
"ADNCA",12,"DOSEAU","Actual Treatment Dose Units","text","Topic","Req",FALSE,FALSE,40,"C71620",FALSE,"mg, g, ug, ng, pg, mol, mmol, umol, nmol, pmol, mg/kg, g/kg, ug/kg, ng/kg, pg/kg, mol/kg, mmol/kg, umol/kg, nmol/kg, pmol/kg",FALSE,"Character column for unit of DOSEA (C71620). Instead of a column name, a unique value can be mapped for all records (i.e, ""mg/L"")","Dose Variables","",NA,FALSE
"ADNCA",38,"DOSEDURU","Duration of Treatment Dose Units","text","Topic","Perm",FALSE,FALSE,40,"",FALSE,"",FALSE,"","","",NA,FALSE
"ADNCA",101,"DOSEFRQ","Dose Frequency","text","Topic","Cond",FALSE,FALSE,40,"",FALSE,"",FALSE,"","","",NA,FALSE
"ADNCA",13,"DOSEP","Planned Treatment Dose","float","Topic","Req",FALSE,FALSE,12,"",FALSE,"",FALSE,"","","",NA,FALSE
"ADNCA",14,"DOSEPU","Planned Treatment Dose Units","text","Topic","Req",FALSE,FALSE,40,"",FALSE,"",FALSE,"","","",NA,FALSE
"ADNCA",188,"DOSNOP","Planned Dose Number","integer","Record Qualifier","Perm",TRUE,FALSE,12,"",FALSE,"",FALSE,"","","",NA,FALSE
"ADNCA",102,"DOSPCTDF","Percent Diff. Nominal vs. Actual Dose","float","Topic","Cond",FALSE,FALSE,12,"",FALSE,"",FALSE,"","","",NA,FALSE
"ADNCA",256,"DTYPE","Derivation Type","text","Timing","Cond",FALSE,FALSE,200,"",FALSE,"",FALSE,"","","",NA,FALSE
"ADNCA",39,"EOSBL","Eosinophils at Baseline","float","Topic","Perm",TRUE,FALSE,12,"",FALSE,"",FALSE,"","","",NA,FALSE
"ADNCA",128,"EOSBLU","Eosinophils at baseline (Unit)","text","Synonym Qualifier","Perm",TRUE,FALSE,40,"",FALSE,"",FALSE,"","","",NA,FALSE
"PP",20,"EPOCH","Epoch","Char","Timing","Perm",FALSE,TRUE,40,"C99079",TRUE,"",FALSE,"","","",NA,FALSE
"ADNCA",231,"EPOCH","Epoch","text","Timing","Perm",FALSE,FALSE,40,"C99079",FALSE,"",FALSE,"","","",NA,FALSE
"ADPP",11.21,"ETHNIC","Ethnicity","text","Topic","Perm",FALSE,TRUE,200,"",TRUE,"",FALSE,"","","",NA,FALSE
"ADNCA",40,"ETHNIC","Ethnicity","text","Topic","Perm",FALSE,TRUE,200,"",TRUE,"",FALSE,"","","",NA,FALSE
"ADNCA",232,"FANLDT","First Date of Dose for Analyte","integer","Timing","Perm",FALSE,FALSE,12,"",FALSE,"",FALSE,"","","",NA,FALSE
"ADNCA",233,"FANLDTM","First Datetime of Dose for Analyte","integer","Timing","Perm",FALSE,FALSE,12,"",FALSE,"",FALSE,"","","",NA,FALSE
"ADNCA",234,"FANLDTMF","First Time of Dose Time Imputation Flag","text","Timing","Perm",FALSE,FALSE,1,"",FALSE,"",FALSE,"","","",NA,FALSE
"ADNCA",235,"FANLEDT","First End Date of Dose for Analyte","integer","Timing","Perm",FALSE,FALSE,12,"",FALSE,"",FALSE,"","","",NA,FALSE
"ADNCA",236,"FANLEDTF","First End of Dose Time Imputation Flag","text","Timing","Perm",FALSE,FALSE,1,"",FALSE,"",FALSE,"","","",NA,FALSE
"ADNCA",237,"FANLEDTM","First End Datetime of Dose for Analyte","integer","Timing","Perm",FALSE,FALSE,12,"",FALSE,"",FALSE,"","","",NA,FALSE
"ADNCA",238,"FANLETM","First End Time of Dose for Analyte","integer","Timing","Perm",FALSE,FALSE,12,"",FALSE,"",FALSE,"","","",NA,FALSE
"ADNCA",239,"FANLTM","First Time of Dose for Analyte","integer","Timing","Perm",FALSE,FALSE,12,"",FALSE,"",FALSE,"","","",NA,FALSE
"ADNCA",189,"FEDSTATE","Fasted / Fed Status","text","Record Qualifier","Perm",TRUE,FALSE,10,"",FALSE,"",FALSE,"","","",NA,FALSE
"ADNCA",129,"FRLTU","Rel. Time from First Dose Unit","text","Synonym Qualifier","Perm",FALSE,FALSE,8,"",FALSE,"",FALSE,"","","",NA,FALSE
"ADNCA",41,"FRMUL","Treatment Formulation","text","Topic","Perm",TRUE,FALSE,20,"",FALSE,"",FALSE,"","","",NA,FALSE
"ADNCA",42,"GGTBL","GGT at Baseline","float","Topic","Perm",TRUE,FALSE,12,"",FALSE,"",FALSE,"","","",NA,FALSE
"ADNCA",130,"GGTBLU","GGT at Baseline (Unit)","text","Synonym Qualifier","Perm",TRUE,FALSE,40,"",FALSE,"",FALSE,"","","",NA,FALSE
"ADNCA",131,"GLUBLU","Glucose at Baseline (Unit)","text","Synonym Qualifier","Perm",TRUE,FALSE,40,"",FALSE,"",FALSE,"","","",NA,FALSE
"ADNCA",43,"GLUCBL","Glucose at Baseline","integer","Topic","Perm",TRUE,FALSE,12,"",FALSE,"",FALSE,"","","",NA,FALSE
"ADNCA",44,"HCTBL","Hematocrit at Baseline","float","Topic","Perm",TRUE,FALSE,12,"",FALSE,"",FALSE,"","","",NA,FALSE
"ADNCA",132,"HCTBLU","HCT at Baseline (Unit)","text","Synonym Qualifier","Perm",TRUE,FALSE,40,"",FALSE,"",FALSE,"","","",NA,FALSE
"ADNCA",45,"HGBBL","Hemoglobin at Baseline","float","Topic","Perm",TRUE,FALSE,12,"",FALSE,"",FALSE,"","","",NA,FALSE
"ADNCA",133,"HGBBLU","HGB at Baseline (Unit)","text","Synonym Qualifier","Perm",TRUE,FALSE,40,"",FALSE,"",FALSE,"","","",NA,FALSE
"ADNCA",134,"HRBL","Heart Rate at Baseline","text","Synonym Qualifier","Perm",TRUE,FALSE,8,"",FALSE,"",FALSE,"","","",NA,FALSE
"ADNCA",46,"HRBLU","Heart Rate at Baseline (Unit)","text","Topic","Perm",TRUE,FALSE,40,"",FALSE,"",FALSE,"","","",NA,FALSE
"ADNCA",47,"HTBL","Height at Baseline","float","Topic","Perm",TRUE,FALSE,12,"",FALSE,"",FALSE,"","","",NA,FALSE
"ADNCA",135,"HTBLU","Height at Baseline (Unit)","text","Synonym Qualifier","Perm",TRUE,FALSE,40,"",FALSE,"",FALSE,"","","",NA,FALSE
"ADNCA",48,"IBWBL","Ideal Body Weight (IBW) at Baseline","float","Topic","Perm",TRUE,FALSE,12,"",FALSE,"",FALSE,"","","",NA,FALSE
"ADNCA",136,"IBWBLU","IBW at Baseline (Unit)","text","Synonym Qualifier","Perm",TRUE,FALSE,40,"",FALSE,"",FALSE,"","","",NA,FALSE
"ADPP",43,"ITTFL","Intent-To-Treat Population Flag","text","Record Qualifier","Cond",FALSE,TRUE,1,"",TRUE,"",FALSE,"","","",NA,FALSE
"ADNCA",197,"ITTFL","Intent-To-Treat Population Flag","text","Record Qualifier","Cond",FALSE,FALSE,1,"",FALSE,"",FALSE,"","","",NA,FALSE
"ADNCA",49,"KBL","Potassium at Baseline","float","Topic","Perm",TRUE,FALSE,12,"",FALSE,"",FALSE,"","","",NA,FALSE
"ADNCA",137,"KBLU","Potassium at Baseline (Unit)","text","Synonym Qualifier","Perm",TRUE,FALSE,40,"",FALSE,"",FALSE,"","","",NA,FALSE
"ADNCA",50,"LBMBL","Lean Body Mass (LBM) at Baseline","float","Topic","Perm",TRUE,FALSE,12,"",FALSE,"",FALSE,"","","",NA,FALSE
"ADNCA",138,"LBWBLU","LBM at Baseline (Unit)","text","Synonym Qualifier","Perm",TRUE,FALSE,40,"",FALSE,"",FALSE,"","","",NA,FALSE
"ADNCA",51,"LYMBL","Lymphocytes at Baseline","float","Topic","Perm",TRUE,FALSE,12,"",FALSE,"",FALSE,"","","",NA,FALSE
"ADNCA",139,"LYMBLU","Lymphocytes at Baseline (Unit)","text","Synonym Qualifier","Perm",TRUE,FALSE,40,"",FALSE,"",FALSE,"","","",NA,FALSE
"ADNCA",52,"MERRLT","Modified Rel. End Time from Ref. Dose","float","Topic","Perm",FALSE,FALSE,12,"",FALSE,"",FALSE,"","","",NA,FALSE
"ADNCA",53,"MERRLT","Modified Rel. End Time from Ref. Dose","float","Topic","Perm",FALSE,FALSE,12,"",FALSE,"",FALSE,"","","",NA,FALSE
"ADNCA",140,"MONOBL","Monocytes at Baseline","float","Synonym Qualifier","Perm",TRUE,FALSE,12,"",FALSE,"",FALSE,"","","",NA,FALSE
"ADNCA",141,"MONOBLU","Monocytes at Baseline (Unit)","text","Synonym Qualifier","Perm",TRUE,FALSE,40,"",FALSE,"",FALSE,"","","",NA,FALSE
"ADNCA",54,"MRRLT","Modified Rel. Time from Ref. Dose","float","Topic","Perm",FALSE,FALSE,12,"",FALSE,"",FALSE,"","","",NA,FALSE
"ADNCA",55,"NABL","Sodium at Baseline","float","Topic","Perm",TRUE,FALSE,12,"",FALSE,"",FALSE,"","","",NA,FALSE
"ADNCA",142,"NABLU","Sodium at Baseline (Unit)","text","Synonym Qualifier","Perm",TRUE,FALSE,40,"",FALSE,"",FALSE,"","","",NA,FALSE
"ADNCA",58,"NCAwXRSN","Reason for PK NCA Exclusion of w (N)","integer","Topic","Perm",FALSE,FALSE,12,"",FALSE,"",FALSE,"","","",NA,FALSE
"ADNCA",190,"NCAXFL","PK NCA Exclusion Flag","text","Record Qualifier","Perm",FALSE,FALSE,1,"",FALSE,"",FALSE,"","","",NA,FALSE
"ADNCA",56,"NCAXFN","PK NCA Exclusion Flag (N)","integer","Topic","Perm",FALSE,FALSE,12,"",FALSE,"",FALSE,"","","",NA,FALSE
"ADNCA",104,"NDOSEDUR","Nominal duration of Treatment Dose","float","Topic","Cond",FALSE,FALSE,12,"",FALSE,"",FALSE,"","","",NA,FALSE
"ADNCA",59,"NEFRLT","Nom. Rel. End Time from First Dose","float","Topic","Perm",FALSE,FALSE,12,"",FALSE,"",FALSE,"","","",NA,FALSE
"ADNCA",60,"NERRLT","Nominal Rel. End Time from Ref. Dose","float","Topic","Perm",FALSE,FALSE,12,"",FALSE,"",FALSE,"","","",NA,FALSE
"ADNCA",61,"NERRLT","Nominal Rel. End Time from Ref. Dose","float","Topic","Perm",FALSE,FALSE,12,"",FALSE,"",FALSE,"","","",NA,FALSE
"ADNCA",62,"NEUBL","Neutrophils at Baseline","float","Topic","Perm",TRUE,FALSE,12,"",FALSE,"",FALSE,"","","",NA,FALSE
"ADNCA",143,"NEUBLU","Neutrophils at Baseline (Unit)","text","Synonym Qualifier","Perm",TRUE,FALSE,40,"",FALSE,"",FALSE,"","","",NA,FALSE
"ADPP",12,"PARAM","Parameter","text","Topic","Req",FALSE,FALSE,100,"",FALSE,"",FALSE,"","","",NA,FALSE
"ADPP",13,"PARAMCD","Parameter Code","text","Topic","Req",FALSE,FALSE,8,"",FALSE,"",FALSE,"","","",NA,FALSE
"ADNCA",17,"PARAMCD","Parameter Code","text","Topic","Req",FALSE,FALSE,8,"",FALSE,"",FALSE,"","","",NA,FALSE
"ADPP",32,"PARCAT1","Parameter Category 1","text","Grouping Qualifier","Perm",TRUE,FALSE,40,"",FALSE,"",FALSE,"","","",NA,FALSE
"ADPP",33,"PARCAT1","Parameter Category 1","text","Grouping Qualifier","Perm",TRUE,FALSE,40,"",FALSE,"",FALSE,"","","",NA,FALSE
"ADNCA",178,"PARCAT1","Parameter Category 1","text","Grouping Qualifier","Perm",FALSE,FALSE,40,"",FALSE,"",FALSE,"","","",NA,FALSE
"ADNCA",64,"PCAINTP","Assay Interpretation","text","Topic","Perm",FALSE,FALSE,200,"",FALSE,"",FALSE,"","","",NA,FALSE
"ADNCA",65,"PCCAT","Test Category","text","Topic","Perm",FALSE,FALSE,100,"",FALSE,"",FALSE,"","","",NA,FALSE
"ADNCA",217,"PCDTC","Date/Time of Specimen Collection","dateTime","Timing","Req",FALSE,FALSE,25,"",FALSE,"",FALSE,"","","",NA,FALSE
"ADNCA",240,"PCDY","Actual Study Day of Specimen Collection","integer","Timing","Perm",FALSE,FALSE,12,"",FALSE,"",FALSE,"","","",NA,FALSE
"ADNCA",66,"PCFAST","Fasting Status","text","Topic","Perm",FALSE,FALSE,2,"",FALSE,"",FALSE,"","","",NA,FALSE
"ADNCA",3,"PCGRPID","Group ID","text","Identifier","Perm",FALSE,FALSE,40,"",FALSE,"",FALSE,"","","",NA,FALSE
"ADNCA",105,"PCLLOQ","Lower Limit of Quantitation","float","Topic","Cond",FALSE,FALSE,12,"",FALSE,"",FALSE,"","","",NA,FALSE
"ADNCA",67,"PCMETHOD","Method of Test or Examination","text","Topic","Perm",FALSE,FALSE,100,"",FALSE,"",FALSE,"","","",NA,FALSE
"ADNCA",68,"PCREASND","Reason Test Not Done","text","Topic","Perm",FALSE,FALSE,200,"",FALSE,"",FALSE,"","","",NA,FALSE
"ADNCA",4,"PCREFID","Reference ID","text","Identifier","Perm",FALSE,FALSE,40,"",FALSE,"",FALSE,"","","",NA,FALSE
"ADNCA",257,"PCRFEDT","Reference End Date of Dose for Analyte","integer","Timing","Cond",FALSE,FALSE,12,"",FALSE,"",FALSE,"","","",NA,FALSE
"ADNCA",258,"PCRFEDTM","Ref. End Datetime of Dose for Analyte","integer","Timing","Cond",FALSE,FALSE,12,"",FALSE,"",FALSE,"","","",NA,FALSE
"ADNCA",259,"PCRFETM","Reference End Time of Dose for Analyte","integer","Timing","Cond",FALSE,FALSE,12,"",FALSE,"",FALSE,"","","",NA,FALSE
"ADNCA",218,"PCRFTDT","Reference Date of Dose for Analyte","integer","Timing","Req",FALSE,FALSE,12,"",FALSE,"",FALSE,"","","",NA,FALSE
"ADNCA",219,"PCRFTDTM","Reference Datetime of Dose for Analyte","integer","Timing","Req",FALSE,FALSE,12,"",FALSE,"",FALSE,"","","",NA,FALSE
"ADNCA",220,"PCRFTTM","Reference Time of Dose for Analyte","integer","Timing","Req",FALSE,FALSE,12,"",FALSE,"",FALSE,"","","",NA,FALSE
"ADNCA",69,"PCSCAT","Test Subcategory","text","Topic","Perm",FALSE,FALSE,100,"",FALSE,"",FALSE,"","","",NA,FALSE
"ADNCA",5,"PCSEQ","Sequence Number","integer","Identifier","Perm",FALSE,FALSE,12,"",FALSE,"",FALSE,"","","",NA,FALSE
"ADNCA",70,"PCSMPLID","Alternate Sample Identifier","text","Topic","Perm",FALSE,FALSE,40,"",FALSE,"",FALSE,"","","",NA,FALSE
"ADNCA",71,"PCSPCCND","Specimen Condition","text","Topic","Perm",FALSE,FALSE,200,"",FALSE,"",FALSE,"","","",NA,FALSE
"ADNCA",6,"PCSPID","Sponsor-Defined Identifier","text","Identifier","Perm",FALSE,FALSE,200,"",FALSE,"",FALSE,"","","",NA,FALSE
"ADNCA",191,"PCSTAT","Completion Status","text","Record Qualifier","Perm",FALSE,FALSE,8,"C66789",FALSE,"",FALSE,"","","",NA,FALSE
"ADNCA",215,"PCSTRESC","Character Result/Finding in Std Format","text","Result Qualifier","Cond",FALSE,FALSE,200,"",FALSE,"",FALSE,"","","",NA,FALSE
"ADNCA",208,"PCSTRESN","Numeric Result/Finding in Standard Units","float","Result Qualifier","Perm",FALSE,FALSE,12,"",FALSE,"",FALSE,"","","",NA,FALSE
"ADNCA",216,"PCSTRESU","Standard Units","text","Result Qualifier","Cond",FALSE,FALSE,40,"",FALSE,"",FALSE,"","","",NA,FALSE
"ADNCA",73,"PCTEST","Pharmacokinetic Test Name","text","Topic","Perm",FALSE,FALSE,40,"",FALSE,"",FALSE,"","","",NA,FALSE
"ADNCA",74,"PCTESTCD","Pharmacokinetic Test Short Name","text","Topic","Perm",FALSE,FALSE,8,"",FALSE,"",FALSE,"","","",NA,FALSE
"ADNCA",221,"PCTPT","Planned Time Point Name","text","Timing","Req",FALSE,FALSE,40,"",FALSE,"",FALSE,"","","",NA,FALSE
"ADNCA",222,"PCTPTNUM","Planned Time Point Number","integer","Timing","Req",FALSE,FALSE,12,"",FALSE,"",FALSE,"","","",NA,FALSE
"ADNCA",75,"PHBL","Phosphate at Baseline","float","Topic","Perm",TRUE,FALSE,12,"",FALSE,"",FALSE,"","","",NA,FALSE
"ADNCA",144,"PHBLU","Phosphate at baseline (Unit)","text","Synonym Qualifier","Perm",TRUE,FALSE,40,"",FALSE,"",FALSE,"","","",NA,FALSE
"ADNCA",76,"PKSUMXF","PK Summary Exclusion Flag","text","Topic","Perm",FALSE,FALSE,1,"",FALSE,"",FALSE,"","","",NA,FALSE
"ADNCA",77,"PKSUMXFN","PK Summary Exclusion Flag (N)","integer","Topic","Perm",FALSE,FALSE,12,"",FALSE,"",FALSE,"","","",NA,FALSE
"ADNCA",78,"PLATEBL","Platelet Count at Baseline","float","Topic","Perm",TRUE,FALSE,12,"",FALSE,"",FALSE,"","","",NA,FALSE
"ADNCA",145,"PLATEBLU","Platelet Count at baseline (Unit)","text","Synonym Qualifier","Perm",TRUE,FALSE,40,"",FALSE,"",FALSE,"","","",NA,FALSE
"PP",18,"PPANMETH","Analysis Method","Char","Record Qualifier","Perm",FALSE,TRUE,200,"",TRUE,"",FALSE,"","","",NA,FALSE
"ADPP",2.57,"PPCAT","Parameter Category","text","Grouping Qualifier","Perm",FALSE,FALSE,100,"",FALSE,"",FALSE,"","","",NA,FALSE
"PP",8,"PPCAT","Parameter Category","Char","Grouping Qualifier","Exp",FALSE,TRUE,100,"",TRUE,"",FALSE,"","","",NA,FALSE
"ADPP",54,"PPDTC","Date/Time of Parameter Calculations","dateTime","Timing","Req",FALSE,FALSE,25,"",FALSE,"",FALSE,"","","",NA,FALSE
"ADPP",2.598,"PPENINT","Planned End of Assessment Interval","duration","Topic","Perm",FALSE,FALSE,25,"",FALSE,"",FALSE,"","","",NA,FALSE
"PP",26,"PPENINT","Planned End of Assessment Interval","Char","Timing","Perm",FALSE,TRUE,25,"",TRUE,"",FALSE,"","","",NA,FALSE
"ADPP",189.5,"PPFAST","Fasting Status","text","Record Qualifier","Perm",TRUE,FALSE,50,"",FALSE,"",FALSE,"","","",NA,FALSE
"ADPP",2.52,"PPGRPID","Group ID","text","Identifier","Perm",FALSE,FALSE,100,"",FALSE,"",FALSE,"","","",NA,FALSE
"PP",5,"PPGRPID","Group ID","Char","Identifier","Perm",FALSE,TRUE,100,"",TRUE,"",FALSE,"","","",NA,FALSE
"ADPP",2.59,"PPORRES","Result or Finding in Original Units","Char","Result Qualifier","Exp",FALSE,TRUE,200,"",FALSE,"",FALSE,"","","",NA,FALSE
"PP",10,"PPORRES","Result or Finding in Original Units","Char","Result Qualifier","Exp",FALSE,TRUE,200,"",TRUE,"",FALSE,"","","",NA,FALSE
"ADPP",2.591,"PPORRESU","Original Units","Char","Variable Qualifier","Exp",FALSE,TRUE,40,"",FALSE,"",FALSE,"","","",NA,FALSE
"PP",11,"PPORRESU","Original Units","Char","Variable Qualifier","Exp",FALSE,TRUE,40,"",TRUE,"",FALSE,"","","",NA,FALSE
"PP",21,"PPPDTC","Date/Time of Parameter Calculations","Char","Timing","Perm",FALSE,TRUE,25,"",TRUE,"",FALSE,"","","",NA,FALSE
"PP",22,"PPPDY","Study Day of Parameter Calculations","Num","Timing","Perm",FALSE,TRUE,12,"",TRUE,"",FALSE,"","","",NA,FALSE
"ADPP",2.596,"PPREASND","Reason Parameter Not Calculated","text","Topic","Perm",FALSE,FALSE,200,"",FALSE,"",FALSE,"","","",NA,FALSE
"PP",16,"PPREASND","Reason Parameter Not Calculated","Char","Record Qualifier","Perm",FALSE,TRUE,200,"",TRUE,"",FALSE,"","","",NA,FALSE
"ADPP",2.598,"PPRFTDTC","Date/Time of Reference Point","Char","Timing","Perm",FALSE,FALSE,25,"",FALSE,"",FALSE,"","","",NA,FALSE
"PP",24,"PPRFTDTC","Date/Time of Reference Point","Char","Timing","Exp",FALSE,TRUE,25,"",TRUE,"",FALSE,"","","",NA,FALSE
"ADPP",44,"PPROTFL","Per-Protocol Population Flag","text","Record Qualifier","Cond",FALSE,TRUE,1,"",TRUE,"",FALSE,"","","",NA,FALSE
"ADNCA",199,"PPROTFL","Per-Protocol Population Flag","text","Record Qualifier","Cond",FALSE,FALSE,1,"L11230",FALSE,"",FALSE,"","","",NA,FALSE
"ADPP",2.58,"PPSCAT","Parameter Subcategory","text","Grouping Qualifier","Perm",FALSE,FALSE,100,"",FALSE,"",FALSE,"","","",NA,FALSE
"PP",9,"PPSCAT","Parameter Subcategory","Char","Grouping Qualifier","Perm",FALSE,TRUE,100,"",TRUE,"",FALSE,"","","",NA,FALSE
"ADPP",2.51,"PPSEQ","Sequence Number","integer","Identifier","Perm",FALSE,FALSE,12,"",FALSE,"",FALSE,"","","",NA,FALSE
"PP",4,"PPSEQ","Sequence Number","Num","Identifier","Req",FALSE,TRUE,12,"",TRUE,"",FALSE,"","","",NA,FALSE
"ADPP",2.597,"PPSPEC","Specimen Material Type","text","Topic","Perm",FALSE,FALSE,40,"",FALSE,"",FALSE,"","","",NA,FALSE
"ADPP",2.5975,"PPANMETH","Analysis Method","Char","Record Qualifier","Perm",FALSE,TRUE,200,"",TRUE,"",FALSE,"","","",NA,FALSE
"PP",17,"PPSPEC","Specimen Material Type","Char","Record Qualifier","Exp",FALSE,TRUE,40,"",TRUE,"",FALSE,"","","",NA,FALSE
"ADPP",2.53,"PPSPID","Sponsor-Defined Identifier","text","Identifier","Perm",FALSE,FALSE,200,"",FALSE,"",FALSE,"","","",NA,FALSE
"ADPP",2.595,"PPSTAT","Completion Status","text","Synonym Qualifier","Cond",FALSE,FALSE,8,"C66789",FALSE,"",FALSE,"","","",NA,FALSE
"PP",15,"PPSTAT","Completion Status","Char","Record Qualifier","Perm",FALSE,TRUE,8,"C66789",TRUE,"",FALSE,"","","",NA,FALSE
"ADPP",2.5981,"PPSTINT","Planned Start of Assessment Interval","duration","Topic","Perm",FALSE,FALSE,25,"",FALSE,"",FALSE,"","","",NA,FALSE
"PP",25,"PPSTINT","Planned Start of Assessment Interval","Char","Timing","Perm",FALSE,TRUE,25,"",TRUE,"",FALSE,"","","",NA,FALSE
"ADPP",2.592,"PPSTRESC","Character Result/Finding in Std Format","text","Result Qualifier","Perm",FALSE,FALSE,200,"",FALSE,"",FALSE,"","","",NA,FALSE
"PP",12,"PPSTRESC","Character Result/Finding in Std Format","Char","Result Qualifier","Exp",FALSE,TRUE,200,"",TRUE,"",FALSE,"","","",NA,FALSE
"ADPP",2.593,"PPSTRESN","Numeric Result/Finding in Standard Units","integer","Result Qualifier","Cond",FALSE,FALSE,12,"",FALSE,"",FALSE,"","","",NA,FALSE
"PP",13,"PPSTRESN","Numeric Result/Finding in Standard Units","Num","Result Qualifier","Exp",FALSE,TRUE,12,"",TRUE,"",FALSE,"","","",NA,FALSE
"ADPP",2.594,"PPSTRESU","Standard Units","text","Result Qualifier","Perm",FALSE,FALSE,40,"",FALSE,"",FALSE,"","","",NA,FALSE
"PP",14,"PPSTRESU","Standard Units","Char","Variable Qualifier","Exp",FALSE,TRUE,40,"",TRUE,"",FALSE,"","","",NA,FALSE
"ADPP",2.56,"PPTEST","Parameter Name","text","Synonym Qualifier","Perm",FALSE,FALSE,40,"",FALSE,"",FALSE,"","","",NA,FALSE
"PP",7,"PPTEST","Parameter Name","Char","Synonym Qualifier","Req",FALSE,TRUE,40,"",TRUE,"",FALSE,"","","",NA,FALSE
"ADPP",2.55,"PPTESTCD","Parameter Short Name","text","Topic","Perm",FALSE,FALSE,8,"C85839",FALSE,"",FALSE,"","","",NA,FALSE
"PP",6,"PPTESTCD","Parameter Short Name","Char","Topic","Req",FALSE,TRUE,8,"C85839",TRUE,"",FALSE,"","","",NA,FALSE
"PP",23,"PPTPTREF","Time Point Reference","Char","Timing","Perm",FALSE,TRUE,40,"",TRUE,"",FALSE,"","","",NA,FALSE
"ADNCA",79,"PRBL","PR Duration at Baseline","float","Topic","Perm",TRUE,FALSE,12,"",FALSE,"",FALSE,"","","",NA,FALSE
"ADNCA",146,"PRBLU","PR Duration at Baseline (Unit)","text","Synonym Qualifier","Perm",TRUE,FALSE,40,"",FALSE,"",FALSE,"","","",NA,FALSE
"PP",19,"PTAETORD","Planned Order of Element within Arm","Num","Timing","Perm",FALSE,TRUE,12,"",TRUE,"",FALSE,"","","",NA,FALSE
"ADNCA",80,"PULSBL","Pulse rate at Baseline","float","Topic","Perm",TRUE,FALSE,12,"",FALSE,"",FALSE,"","","",NA,FALSE
"ADNCA",147,"PULSBLU","Pulse rate at Baseline (Unit)","text","Synonym Qualifier","Perm",TRUE,FALSE,40,"",FALSE,"",FALSE,"","","",NA,FALSE
"ADNCA",81,"QRSBL","QRS Duration at Baseline","float","Topic","Perm",TRUE,FALSE,12,"",FALSE,"",FALSE,"","","",NA,FALSE
"ADNCA",148,"QRSBLU","QRS Duration at Baseline (Unit)","text","Synonym Qualifier","Perm",TRUE,FALSE,40,"",FALSE,"",FALSE,"","","",NA,FALSE
"ADNCA",82,"QTBL","QT duration at Baseline","float","Topic","Perm",TRUE,FALSE,12,"",FALSE,"",FALSE,"","","",NA,FALSE
"ADNCA",149,"QTBLU","QT Duration at Baseline (Unit)","text","Synonym Qualifier","Perm",TRUE,FALSE,40,"",FALSE,"",FALSE,"","","",NA,FALSE
"ADNCA",83,"QTCBBL","QTcB at Baseline","float","Topic","Perm",TRUE,FALSE,12,"",FALSE,"",FALSE,"","","",NA,FALSE
"ADNCA",150,"QTCBBLU","QTcB at Baseline (Unit)","text","Synonym Qualifier","Perm",TRUE,FALSE,40,"",FALSE,"",FALSE,"","","",NA,FALSE
"ADNCA",151,"QTCFBL","QTcF at Baseline","float","Synonym Qualifier","Perm",TRUE,FALSE,12,"",FALSE,"",FALSE,"","","",NA,FALSE
"ADNCA",84,"QTCFBLU","QTcF at Baseline (Unit)","text","Topic","Perm",TRUE,FALSE,40,"",FALSE,"",FALSE,"","","",NA,FALSE
"ADPP",11.06,"RACE","Race","text","Topic","Req",FALSE,TRUE,200,"",TRUE,"",FALSE,"","","",NA,FALSE
"ADNCA",18,"RACE","Race","text","Topic","Req",FALSE,FALSE,200,"C74457",FALSE,"",FALSE,"","","",NA,FALSE
"ADNCA",85,"RBCBL","RBC Count at Baseline","float","Topic","Perm",TRUE,FALSE,12,"",FALSE,"",FALSE,"","","",NA,FALSE
"ADNCA",152,"RBCBLU","RBC Count at Baseline (Unit)","text","Synonym Qualifier","Perm",TRUE,FALSE,40,"",FALSE,"",FALSE,"","","",NA,FALSE
"ADNCA",86,"REGIME","Regimen of Medication","text","Topic","Perm",TRUE,FALSE,40,"",FALSE,"",FALSE,"","","",NA,FALSE
"ADPP",25,"REGION1","Geographic Region 1","text","Topic","Perm",TRUE,TRUE,200,"",TRUE,"",FALSE,"","","",NA,FALSE
"ADNCA",87,"REGION1","Geographic Region 1","text","Topic","Perm",TRUE,TRUE,200,"",TRUE,"",FALSE,"","","",NA,FALSE
"ADNCA",89,"RRBL","RR Duration at Baseline","float","Topic","Perm",TRUE,FALSE,12,"",FALSE,"",FALSE,"","","",NA,FALSE
"ADNCA",153,"RRBLU","RR Duration at Baseline (Unit)","text","Synonym Qualifier","Perm",TRUE,FALSE,40,"",FALSE,"",FALSE,"","","",NA,FALSE
"ADPP",45,"SAFFL","Safety Population Flag","text","Record Qualifier","Cond",FALSE,TRUE,1,"",TRUE,"",FALSE,"","","",NA,FALSE
"ADNCA",200,"SAFFL","Safety Population Flag","text","Record Qualifier","Cond",FALSE,FALSE,1,"L11229",FALSE,"",FALSE,"","","",NA,FALSE
"ADNCA",90,"SBPBL","Systolic BP at Baseline","float","Topic","Perm",TRUE,FALSE,12,"",FALSE,"",FALSE,"","","",NA,FALSE
"ADNCA",154,"SBPBLU","Systolic BP at Baseline (Unit)","text","Synonym Qualifier","Perm",TRUE,FALSE,40,"",FALSE,"",FALSE,"","","",NA,FALSE
"ADPP",11.05,"SEX","Sex","text","Topic","Req",FALSE,TRUE,2,"",TRUE,"",FALSE,"","","",NA,FALSE
"ADNCA",19,"SEX","Sex","text","Topic","Req",FALSE,FALSE,2,"C66731",FALSE,"",FALSE,"","","",NA,FALSE
"ADNCA",91,"SGOTBL","SGOT-AST at Baseline","float","Topic","Perm",TRUE,FALSE,12,"",FALSE,"",FALSE,"","","",NA,FALSE
"ADNCA",155,"SGOTBLU","SGOT-AST at Baseline (Unit)","text","Synonym Qualifier","Perm",TRUE,FALSE,40,"",FALSE,"",FALSE,"","","",NA,FALSE
"ADNCA",92,"SGPTBL","SGPT-ALT at Baseline","float","Topic","Perm",TRUE,FALSE,12,"",FALSE,"",FALSE,"","","",NA,FALSE
"ADNCA",156,"SGPTBLU","SGPT-ALT at Baseline (Unit)","text","Synonym Qualifier","Perm",TRUE,FALSE,40,"",FALSE,"",FALSE,"","","",NA,FALSE
"ADNCA",2.54,"SITEID","Study Site Identifier","text","Identifier","Perm",FALSE,TRUE,20,"",TRUE,"",FALSE,"","","",NA,FALSE
"ADPP",7,"SITEID","Study Site Identifier","text","Identifier","Perm",FALSE,TRUE,20,"",TRUE,"",FALSE,"","","",NA,FALSE
"ADNCA",201,"SPARSFL","Sparse Flag","text","Record Qualifier","Cond",FALSE,FALSE,1,"",FALSE,"",FALSE,"","","",NA,FALSE
"ADNCA",106,"SPWEIGHT","Specimen Weight Value","float","Topic","Cond",FALSE,FALSE,12,"",FALSE,"",FALSE,"","","",NA,FALSE
"ADNCA",107,"SPWEIGHU","Specimen Weight Value Unit","text","Topic","Cond",FALSE,FALSE,40,"",FALSE,"",FALSE,"","","",NA,FALSE
"ADPP",36,"STRATwD","Description of Stratification Factor w","text","Grouping Qualifier","Perm",FALSE,TRUE,200,"",TRUE,"",FALSE,"","","",NA,FALSE
"ADNCA",179,"STRATwD","Description of Stratification Factor w","text","Grouping Qualifier","Perm",FALSE,TRUE,200,"",TRUE,"",FALSE,"","","",NA,FALSE
"ADPP",37,"STRATwR","Strat Factor w Value Used for Rand","text","Grouping Qualifier","Perm",FALSE,TRUE,200,"",TRUE,"",FALSE,"","","",NA,FALSE
"ADNCA",180,"STRATwR","Strat Factor w Value Used for Rand","text","Grouping Qualifier","Perm",FALSE,TRUE,200,"",TRUE,"",FALSE,"","","",NA,FALSE
"ADPP",38,"STRATwV","Verified Value of Stratum w","text","Grouping Qualifier","Perm",TRUE,TRUE,200,"",TRUE,"",FALSE,"","","",NA,FALSE
"ADNCA",181,"STRATwV","Verified Value of Stratum w","text","Grouping Qualifier","Perm",TRUE,FALSE,200,"",FALSE,"",FALSE,"","","",NA,FALSE
"ADPP",1,"STUDYID","Study Identifier","text","Identifier","Req",FALSE,TRUE,8,"",TRUE,"",TRUE,"","","",NA,FALSE
"PP",1,"STUDYID","Study Identifier","Char","Identifier","Req",FALSE,TRUE,8,"",TRUE,"",FALSE,"","","",NA,FALSE
"ADNCA",2.5,"SUBJID","Subject Identifier for the Study","text","Identifier","Perm",FALSE,TRUE,50,"",TRUE,"",FALSE,"","","",NA,FALSE
"ADPP",2.5,"SUBJID","Subject Identifier for the Study","text","Identifier","Perm",FALSE,TRUE,50,"",TRUE,"",FALSE,"","","",NA,FALSE
"ADNCA",93,"TBILIBL","Bilirubin at Baseline (BLOOD)","float","Topic","Perm",TRUE,FALSE,12,"",FALSE,"",FALSE,"","","",NA,FALSE
"ADNCA",157,"TBILIBLU","Bilirubin at Baseline (Unit)","text","Synonym Qualifier","Perm",TRUE,FALSE,40,"",FALSE,"",FALSE,"","","",NA,FALSE
"ADNCA",94,"TEMPBL","Temperature at Baseline","float","Topic","Perm",TRUE,FALSE,12,"",FALSE,"",FALSE,"","","",NA,FALSE
"ADNCA",241,"TMPCTDF","Percent Diff. Nominal vs. Actual Time","float","Timing","Perm",FALSE,FALSE,12,"",FALSE,"",FALSE,"","","",NA,FALSE
"ADNCA",95,"TOBBL","Smoking Status at Baseline","float","Topic","Perm",TRUE,FALSE,12,"",FALSE,"",FALSE,"","","",NA,FALSE
"ADNCA",158,"TOBBLU","Smoking Status at Baseline (Unit)","text","Synonym Qualifier","Perm",TRUE,FALSE,40,"",FALSE,"",FALSE,"","","",NA,FALSE
"ADNCA",96,"TPROTBL","Total Protein at Baseline (BLOOD)","float","Topic","Perm",TRUE,FALSE,12,"",FALSE,"",FALSE,"","","",NA,FALSE
"ADNCA",159,"TPROTBLU","Total Protein at Baseline (Unit)","text","Synonym Qualifier","Perm",TRUE,FALSE,40,"",FALSE,"",FALSE,"","","",NA,FALSE
"ADPP",55,"TRT01A","Actual Treatment for Period 01","text","Timing","Cond",TRUE,TRUE,200,"",TRUE,"",FALSE,"","","",NA,FALSE
"ADNCA",184,"TRT01A","Actual Treatment for Period 01","text","Grouping Qualifier","Cond",TRUE,FALSE,200,"",FALSE,"",FALSE,"","","",NA,FALSE
"ADPP",55,"TRT01P","Planned Treatment for Period 01","text","Timing","Req",TRUE,TRUE,200,"",TRUE,"",FALSE,"","","",NA,FALSE
"ADNCA",169,"TRT01P","Planned Treatment for Period 01","text","Grouping Qualifier","Req",TRUE,FALSE,200,"",FALSE,"",FALSE,"","","",NA,FALSE
"ADPP",67,"TRTEDT","Date of Last Exposure to Treatment","integer","Timing","Cond",FALSE,TRUE,12,"",TRUE,"",FALSE,"","","",NA,FALSE
"ADNCA",260,"TRTEDT","Date of Last Exposure to Treatment","integer","Timing","Cond",FALSE,FALSE,12,"C85492",FALSE,"",FALSE,"","","",NA,FALSE
"ADPP",68,"TRTEDTM","Datetime of Last Exposure to Treatment","integer","Timing","Cond",FALSE,TRUE,12,"",TRUE,"",FALSE,"","","",NA,FALSE
"ADNCA",261,"TRTEDTM","Datetime of Last Exposure to Treatment","integer","Timing","Cond",FALSE,FALSE,12,"C78733",FALSE,"",FALSE,"","","",NA,FALSE
"ADNCA",98,"TRTRINTU","Planned Treatment Interval Units","text","Topic","Perm",FALSE,FALSE,40,"",FALSE,"",FALSE,"","","",NA,FALSE
"ADPP",69,"TRTSDT","Date of First Exposure to Treatment","integer","Timing","Cond",FALSE,TRUE,12,"",TRUE,"",FALSE,"","","",NA,FALSE
"ADNCA",262,"TRTSDT","Date of First Exposure to Treatment","integer","Timing","Cond",FALSE,FALSE,12,"C78734",FALSE,"",FALSE,"","","",NA,FALSE
"ADPP",70,"TRTSDTM","Datetime of First Exposure to Treatment","integer","Timing","Cond",FALSE,TRUE,12,"",TRUE,"",FALSE,"","","",NA,FALSE
"ADNCA",263,"TRTSDTM","Datetime of First Exposure to Treatment","integer","Timing","Cond",FALSE,FALSE,12,"",FALSE,"",FALSE,"","","",NA,FALSE
"ADPP",9,"TRTSEQA","Actual Sequence of Treatments","text","Identifier","Cond",FALSE,TRUE,200,"",TRUE,"",FALSE,"","","",NA,FALSE
"ADNCA",185,"TRTSEQA","Actual Sequence of Treatments","text","Grouping Qualifier","Cond",FALSE,FALSE,200,"",FALSE,"",FALSE,"","","",NA,FALSE
"ADPP",10,"TRTSEQP","Planned Sequence of Treatments","text","Identifier","Cond",FALSE,TRUE,200,"",TRUE,"",FALSE,"","","",NA,FALSE
"ADNCA",186,"TRTSEQP","Planned Sequence of Treatments","text","Grouping Qualifier","Cond",FALSE,FALSE,200,"",FALSE,"",FALSE,"","","",NA,FALSE
"ADPP",55,"TRTxxA","Actual Treatment for Period xx","text","Timing","Cond",FALSE,TRUE,200,"",TRUE,"",FALSE,"","","",NA,FALSE
"ADNCA",108,"TRTxxA","Actual Treatment for Period xx","text","Topic","Cond",FALSE,FALSE,200,"",FALSE,"",FALSE,"","","",NA,FALSE
"ADPP",55,"TRTxxP","Planned Treatment for Period xx","text","Timing","Cond",FALSE,TRUE,200,"",TRUE,"",FALSE,"","","",NA,FALSE
"ADNCA",109,"TRTxxP","Planned Treatment for Period xx","text","Topic","Cond",FALSE,FALSE,200,"",FALSE,"",FALSE,"","","",NA,FALSE
"ADPP",2,"USUBJID","Unique Subject Identifier","text","Identifier","Req",FALSE,TRUE,50,"",TRUE,"",TRUE,"","","",NA,FALSE
"PP",3,"USUBJID","Unique Subject Identifier","Char","Identifier","Req",FALSE,TRUE,50,"",TRUE,"",FALSE,"","","",NA,FALSE
"ADNCA",170,"VISIT","Visit Name","text","Grouping Qualifier","Req",FALSE,FALSE,200,"",FALSE,"",FALSE,"","","",NA,FALSE
"ADNCA",171,"VISITDY","Planned Study Day of Visit","integer","Grouping Qualifier","Req",FALSE,FALSE,12,"1",FALSE,"",FALSE,"","","",NA,FALSE
"ADNCA",172,"VISITNUM","Visit Number","integer","Grouping Qualifier","Req",FALSE,FALSE,12,"",FALSE,"",FALSE,"","","",NA,FALSE
"ADNCA",160,"WBCBL","WBC Count at Baseline","float","Synonym Qualifier","Perm",TRUE,FALSE,12,"",FALSE,"",FALSE,"","","",NA,FALSE
"ADNCA",161,"WBCBLU","WBC Count at baseline (Unit)","text","Synonym Qualifier","Perm",TRUE,FALSE,40,"",FALSE,"",FALSE,"","","",NA,FALSE
"ADNCA",264,"PKSUM1F","PK Summary Exclusion Flag 1","text","Record Qualifier","Perm",FALSE,FALSE,1,"",FALSE,"",FALSE,"","","",NA,FALSE
"ADNCA",265,"PKSUM1FN","PK Summary Exclusion Flag 1 (N)","integer","Record Qualifier","Perm",FALSE,FALSE,12,"",FALSE,"",FALSE,"","","",NA,FALSE
"ADPP",193,"PPSUMFL","PP Summary Exclusion Flag","text","Record Qualifier","Perm",FALSE,FALSE,1,"",FALSE,"",FALSE,"","","",NA,FALSE
"ADPP",194,"PPSUMRSN","PP Summary Exclusion Reason","text","Record Qualifier","Perm",FALSE,FALSE,200,"",FALSE,"",FALSE,"","","",NA,FALSE
